success,timeout,failed_images,failed_audio,failed_video,trial_type,trial_index,time_elapsed,internal_node_id,run_id,condition,recorded_at,source_code_version,ip,user_agent,device,browser,browser_version,platform,platform_version,referer,accept_language,rt,stimulus,response,question_order,task,problem_name,problem_number,complexity,correct_answer,participant_answer,is_correct
true,false,[],[],[],preload,0,1847,0.0-0.0,1,1,2026-01-26 05:56:05,be186a8311b68188ac0553e60d64e3d3,222.109.123.158,"Mozilla/5.0 (Windows NT 10.0; Win64; x64) AppleWebKit/537.36 (KHTML, like Gecko) Chrome/144.0.0.0 Safari/537.36",WebKit,Chrome,144.0.0.0,Windows,10.0,null,"ko-KR,ko;q=0.9,en-US;q=0.8,en;q=0.7",,,,,,,,,,,
,,,,,html-button-response,1,9490,0.0-1.0,1,1,2026-01-26 05:56:05,be186a8311b68188ac0553e60d64e3d3,222.109.123.158,"Mozilla/5.0 (Windows NT 10.0; Win64; x64) AppleWebKit/537.36 (KHTML, like Gecko) Chrome/144.0.0.0 Safari/537.36",WebKit,Chrome,144.0.0.0,Windows,10.0,null,"ko-KR,ko;q=0.9,en-US;q=0.8,en;q=0.7",7641,"<h1>Program Comprehension Study</h1><div style=""text-align: left; max-width: 800px; margin: 0 auto; line-height: 1.8;""><p>Thank you for participating in this study.</p><p>In this experiment, you will be shown <strong>5 code snippets</strong> with input values. Your task is to <strong>calculate the return value</strong> of each function.</p><p><strong>Important:</strong></p><ul><li>You may use a calculator for arithmetic operations.</li><li>Take your time to understand the code before answering.</li><li>Your response time will be recorded.</li></ul><p>The study takes approximately <strong>15-20 minutes</strong>.</p><p>By clicking ""I Agree"", you consent to participate in this study.</p></div>",0,,,,,,,,
,,,,,survey-multi-choice,2,23419,0.0-2.0,1,1,2026-01-26 05:56:05,be186a8311b68188ac0553e60d64e3d3,222.109.123.158,"Mozilla/5.0 (Windows NT 10.0; Win64; x64) AppleWebKit/537.36 (KHTML, like Gecko) Chrome/144.0.0.0 Safari/537.36",WebKit,Chrome,144.0.0.0,Windows,10.0,null,"ko-KR,ko;q=0.9,en-US;q=0.8,en;q=0.7",13928,,"{""programming_exp"":""More than 5 years"",""solidity_exp"":""Advanced (deployed contracts)"",""role"":""Graduate Student""}","[0,1,2]",,,,,,,
,,,,,html-button-response,3,34604,0.0-3.0,1,1,2026-01-26 05:56:05,be186a8311b68188ac0553e60d64e3d3,222.109.123.158,"Mozilla/5.0 (Windows NT 10.0; Win64; x64) AppleWebKit/537.36 (KHTML, like Gecko) Chrome/144.0.0.0 Safari/537.36",WebKit,Chrome,144.0.0.0,Windows,10.0,null,"ko-KR,ko;q=0.9,en-US;q=0.8,en;q=0.7",11184,"<h2>Instructions</h2><div style=""text-align: left; max-width: 800px; margin: 0 auto; line-height: 1.8;""><p>You will now see 5 problems. For each problem:</p><ol><li>Read the code carefully</li><li>Note the input values provided</li><li>Calculate the return value of the function</li><li>Enter your answer in the text box below the code</li><li>Click ""Submit"" when ready</li></ol><p><strong>Note:</strong> Enter only the numeric value (e.g., 1234), not variable names or expressions.</p><p>Click ""Start"" when you are ready.</p></div>",0,,,,,,,,
,,,,,html-button-response,4,129838,0.0-4.0,1,1,2026-01-26 05:56:05,be186a8311b68188ac0553e60d64e3d3,222.109.123.158,"Mozilla/5.0 (Windows NT 10.0; Win64; x64) AppleWebKit/537.36 (KHTML, like Gecko) Chrome/144.0.0.0 Safari/537.36",WebKit,Chrome,144.0.0.0,Windows,10.0,null,"ko-KR,ko;q=0.9,en-US;q=0.8,en;q=0.7",95233,"<div style=""display: flex; flex-direction: column; align-items: center;""><div style=""font-size: 18px; color: #666; margin-bottom: 15px;"">Problem 1 of 5</div><img src=""problem_1.png"" style=""max-width: 900px; border-radius: 10px; box-shadow: 0 4px 6px rgba(0, 0, 0, 0.3);""><div style=""margin-top: 25px; display: flex; align-items: center; gap: 15px;""><label style=""font-size: 18px;"">Return value:</label><input type=""number"" id=""answer-input-0"" style=""font-size: 22px; padding: 12px 20px; width: 180px; text-align: center; border: 2px solid #4CAF50; border-radius: 8px;"" placeholder=""Enter number""></div></div>",0,,problem,GreenHouse,1,Low,7651,7651,true
,,,,,html-button-response,5,132102,0.0-5.0,1,1,2026-01-26 05:56:05,be186a8311b68188ac0553e60d64e3d3,222.109.123.158,"Mozilla/5.0 (Windows NT 10.0; Win64; x64) AppleWebKit/537.36 (KHTML, like Gecko) Chrome/144.0.0.0 Safari/537.36",WebKit,Chrome,144.0.0.0,Windows,10.0,null,"ko-KR,ko;q=0.9,en-US;q=0.8,en;q=0.7",2263,"<h3>Problem 1 Complete</h3><p>Take a short break if needed.</p><p>Click ""Next"" when you are ready for the next problem.</p>",0,,,,,,,,
,,,,,html-button-response,6,160752,0.0-6.0,1,1,2026-01-26 05:56:05,be186a8311b68188ac0553e60d64e3d3,222.109.123.158,"Mozilla/5.0 (Windows NT 10.0; Win64; x64) AppleWebKit/537.36 (KHTML, like Gecko) Chrome/144.0.0.0 Safari/537.36",WebKit,Chrome,144.0.0.0,Windows,10.0,null,"ko-KR,ko;q=0.9,en-US;q=0.8,en;q=0.7",28649,"<div style=""display: flex; flex-direction: column; align-items: center;""><div style=""font-size: 18px; color: #666; margin-bottom: 15px;"">Problem 2 of 5</div><img src=""problem_2.png"" style=""max-width: 900px; border-radius: 10px; box-shadow: 0 4px 6px rgba(0, 0, 0, 0.3);""><div style=""margin-top: 25px; display: flex; align-items: center; gap: 15px;""><label style=""font-size: 18px;"">Return value:</label><input type=""number"" id=""answer-input-1"" style=""font-size: 22px; padding: 12px 20px; width: 180px; text-align: center; border: 2px solid #4CAF50; border-radius: 8px;"" placeholder=""Enter number""></div></div>",0,,problem,HubPool,2,Medium,954,954,true
,,,,,html-button-response,7,162132,0.0-7.0,1,1,2026-01-26 05:56:05,be186a8311b68188ac0553e60d64e3d3,222.109.123.158,"Mozilla/5.0 (Windows NT 10.0; Win64; x64) AppleWebKit/537.36 (KHTML, like Gecko) Chrome/144.0.0.0 Safari/537.36",WebKit,Chrome,144.0.0.0,Windows,10.0,null,"ko-KR,ko;q=0.9,en-US;q=0.8,en;q=0.7",1379,"<h3>Problem 2 Complete</h3><p>Take a short break if needed.</p><p>Click ""Next"" when you are ready for the next problem.</p>",0,,,,,,,,
,,,,,html-button-response,8,201627,0.0-8.0,1,1,2026-01-26 05:56:05,be186a8311b68188ac0553e60d64e3d3,222.109.123.158,"Mozilla/5.0 (Windows NT 10.0; Win64; x64) AppleWebKit/537.36 (KHTML, like Gecko) Chrome/144.0.0.0 Safari/537.36",WebKit,Chrome,144.0.0.0,Windows,10.0,null,"ko-KR,ko;q=0.9,en-US;q=0.8,en;q=0.7",39494,"<div style=""display: flex; flex-direction: column; align-items: center;""><div style=""font-size: 18px; color: #666; margin-bottom: 15px;"">Problem 3 of 5</div><img src=""problem_3.png"" style=""max-width: 900px; border-radius: 10px; box-shadow: 0 4px 6px rgba(0, 0, 0, 0.3);""><div style=""margin-top: 25px; display: flex; align-items: center; gap: 15px;""><label style=""font-size: 18px;"">Return value:</label><input type=""number"" id=""answer-input-2"" style=""font-size: 22px; padding: 12px 20px; width: 180px; text-align: center; border: 2px solid #4CAF50; border-radius: 8px;"" placeholder=""Enter number""></div></div>",0,,problem,PercentageFeeModel,3,Medium-High,85,85,true
,,,,,html-button-response,9,202398,0.0-9.0,1,1,2026-01-26 05:56:05,be186a8311b68188ac0553e60d64e3d3,222.109.123.158,"Mozilla/5.0 (Windows NT 10.0; Win64; x64) AppleWebKit/537.36 (KHTML, like Gecko) Chrome/144.0.0.0 Safari/537.36",WebKit,Chrome,144.0.0.0,Windows,10.0,null,"ko-KR,ko;q=0.9,en-US;q=0.8,en;q=0.7",770,"<h3>Problem 3 Complete</h3><p>Take a short break if needed.</p><p>Click ""Next"" when you are ready for the next problem.</p>",0,,,,,,,,
,,,,,html-button-response,10,226409,0.0-10.0,1,1,2026-01-26 05:56:05,be186a8311b68188ac0553e60d64e3d3,222.109.123.158,"Mozilla/5.0 (Windows NT 10.0; Win64; x64) AppleWebKit/537.36 (KHTML, like Gecko) Chrome/144.0.0.0 Safari/537.36",WebKit,Chrome,144.0.0.0,Windows,10.0,null,"ko-KR,ko;q=0.9,en-US;q=0.8,en;q=0.7",24011,"<div style=""display: flex; flex-direction: column; align-items: center;""><div style=""font-size: 18px; color: #666; margin-bottom: 15px;"">Problem 4 of 5</div><img src=""problem_4.png"" style=""max-width: 900px; border-radius: 10px; box-shadow: 0 4px 6px rgba(0, 0, 0, 0.3);""><div style=""margin-top: 25px; display: flex; align-items: center; gap: 15px;""><label style=""font-size: 18px;"">Return value:</label><input type=""number"" id=""answer-input-3"" style=""font-size: 22px; padding: 12px 20px; width: 180px; text-align: center; border: 2px solid #4CAF50; border-radius: 8px;"" placeholder=""Enter number""></div></div>",0,,problem,LockupContract,4,High,6000,6000,true
,,,,,html-button-response,11,227262,0.0-11.0,1,1,2026-01-26 05:56:05,be186a8311b68188ac0553e60d64e3d3,222.109.123.158,"Mozilla/5.0 (Windows NT 10.0; Win64; x64) AppleWebKit/537.36 (KHTML, like Gecko) Chrome/144.0.0.0 Safari/537.36",WebKit,Chrome,144.0.0.0,Windows,10.0,null,"ko-KR,ko;q=0.9,en-US;q=0.8,en;q=0.7",852,"<h3>Problem 4 Complete</h3><p>Take a short break if needed.</p><p>Click ""Next"" when you are ready for the next problem.</p>",0,,,,,,,,
,,,,,html-button-response,12,270362,0.0-12.0,1,1,2026-01-26 05:56:05,be186a8311b68188ac0553e60d64e3d3,222.109.123.158,"Mozilla/5.0 (Windows NT 10.0; Win64; x64) AppleWebKit/537.36 (KHTML, like Gecko) Chrome/144.0.0.0 Safari/537.36",WebKit,Chrome,144.0.0.0,Windows,10.0,null,"ko-KR,ko;q=0.9,en-US;q=0.8,en;q=0.7",43099,"<div style=""display: flex; flex-direction: column; align-items: center;""><div style=""font-size: 18px; color: #666; margin-bottom: 15px;"">Problem 5 of 5</div><img src=""problem_5.png"" style=""max-width: 900px; border-radius: 10px; box-shadow: 0 4px 6px rgba(0, 0, 0, 0.3);""><div style=""margin-top: 25px; display: flex; align-items: center; gap: 15px;""><label style=""font-size: 18px;"">Return value:</label><input type=""number"" id=""answer-input-4"" style=""font-size: 22px; padding: 12px 20px; width: 180px; text-align: center; border: 2px solid #4CAF50; border-radius: 8px;"" placeholder=""Enter number""></div></div>",0,,problem,Lock,5,High,6800,6800,true
,,,,,survey-multi-choice,13,274465,0.0-13.0,1,1,2026-01-26 05:56:05,be186a8311b68188ac0553e60d64e3d3,222.109.123.158,"Mozilla/5.0 (Windows NT 10.0; Win64; x64) AppleWebKit/537.36 (KHTML, like Gecko) Chrome/144.0.0.0 Safari/537.36",WebKit,Chrome,144.0.0.0,Windows,10.0,null,"ko-KR,ko;q=0.9,en-US;q=0.8,en;q=0.7",4102,,"{""tools_used"":""AI (e.g., ChatGPT, Claude, Copilot)""}",[0],,,,,,,
,,,,,html-button-response,14,276424,0.0-14.0,1,1,2026-01-26 05:56:05,be186a8311b68188ac0553e60d64e3d3,222.109.123.158,"Mozilla/5.0 (Windows NT 10.0; Win64; x64) AppleWebKit/537.36 (KHTML, like Gecko) Chrome/144.0.0.0 Safari/537.36",WebKit,Chrome,144.0.0.0,Windows,10.0,null,"ko-KR,ko;q=0.9,en-US;q=0.8,en;q=0.7",1958,<h1>Thank You!</h1><p>Your responses have been recorded.</p><p>Thank you for participating in this study.</p>,0,,,,,,,,
true,false,[],[],[],preload,0,189,0.0-0.0,11,1,2026-01-26 07:34:59,74232d8b0e4be341c6e5f2f2ebfe01be,163.152.3.138,"Mozilla/5.0 (Windows NT 10.0; Win64; x64) AppleWebKit/537.36 (KHTML, like Gecko) Chrome/144.0.0.0 Safari/537.36",WebKit,Chrome,144.0.0.0,Windows,10.0,null,"ko-KR,ko;q=0.9,en-US;q=0.8,en;q=0.7",,,,,,,,,,,
,,,,,html-button-response,1,3401,0.0-1.0,11,1,2026-01-26 07:34:59,74232d8b0e4be341c6e5f2f2ebfe01be,163.152.3.138,"Mozilla/5.0 (Windows NT 10.0; Win64; x64) AppleWebKit/537.36 (KHTML, like Gecko) Chrome/144.0.0.0 Safari/537.36",WebKit,Chrome,144.0.0.0,Windows,10.0,null,"ko-KR,ko;q=0.9,en-US;q=0.8,en;q=0.7",3211,"<h1>Program Comprehension Study</h1><div style=""text-align: left; max-width: 800px; margin: 0 auto; line-height: 1.8;""><p>Thank you for participating in this study.</p><p>In this experiment, you will be shown <strong>5 code snippets</strong> with input values. Your task is to <strong>calculate the return value</strong> of each function.</p><p><strong>Important:</strong></p><ul><li>You may use a calculator for arithmetic operations.</li><li>Take your time to understand the code before answering.</li><li>Your response time will be recorded.</li></ul><p>The study takes approximately <strong>15-20 minutes</strong>.</p><p>By clicking ""I Agree"", you consent to participate in this study.</p></div>",0,,,,,,,,
,,,,,survey-text,2,22697,0.0-2.0,11,1,2026-01-26 07:34:59,74232d8b0e4be341c6e5f2f2ebfe01be,163.152.3.138,"Mozilla/5.0 (Windows NT 10.0; Win64; x64) AppleWebKit/537.36 (KHTML, like Gecko) Chrome/144.0.0.0 Safari/537.36",WebKit,Chrome,144.0.0.0,Windows,10.0,null,"ko-KR,ko;q=0.9,en-US;q=0.8,en;q=0.7",19293,,"{""name"":""suyun.B"",""email"":""ilovesy@korea.ac.kr""}",,,,,,,,
,,,,,survey-multi-choice,3,55592,0.0-3.0,11,1,2026-01-26 07:34:59,74232d8b0e4be341c6e5f2f2ebfe01be,163.152.3.138,"Mozilla/5.0 (Windows NT 10.0; Win64; x64) AppleWebKit/537.36 (KHTML, like Gecko) Chrome/144.0.0.0 Safari/537.36",WebKit,Chrome,144.0.0.0,Windows,10.0,null,"ko-KR,ko;q=0.9,en-US;q=0.8,en;q=0.7",32893,,"{""programming_exp"":""More than 5 years"",""solidity_exp"":""Beginner (read some code)"",""role"":""Researcher""}","[0,1,2]",,,,,,,
,,,,,html-button-response,4,62883,0.0-4.0,11,1,2026-01-26 07:34:59,74232d8b0e4be341c6e5f2f2ebfe01be,163.152.3.138,"Mozilla/5.0 (Windows NT 10.0; Win64; x64) AppleWebKit/537.36 (KHTML, like Gecko) Chrome/144.0.0.0 Safari/537.36",WebKit,Chrome,144.0.0.0,Windows,10.0,null,"ko-KR,ko;q=0.9,en-US;q=0.8,en;q=0.7",7290,"<h2>Instructions</h2><div style=""text-align: left; max-width: 800px; margin: 0 auto; line-height: 1.8;""><p>You will now see 5 problems. For each problem:</p><ol><li>Read the code carefully</li><li>Note the input values provided</li><li>Calculate the return value of the function</li><li>Enter your answer in the text box below the code</li><li>Click ""Submit"" when ready</li></ol><p><strong>Note:</strong> Enter only the numeric value (e.g., 1234), not variable names or expressions.</p><p>Click ""Start"" when you are ready.</p></div>",0,,,,,,,,
,,,,,html-button-response,5,274820,0.0-5.0,11,1,2026-01-26 07:34:59,74232d8b0e4be341c6e5f2f2ebfe01be,163.152.3.138,"Mozilla/5.0 (Windows NT 10.0; Win64; x64) AppleWebKit/537.36 (KHTML, like Gecko) Chrome/144.0.0.0 Safari/537.36",WebKit,Chrome,144.0.0.0,Windows,10.0,null,"ko-KR,ko;q=0.9,en-US;q=0.8,en;q=0.7",211936,"<div style=""display: flex; flex-direction: column; align-items: center;""><div style=""font-size: 18px; color: #666; margin-bottom: 15px;"">Problem 1 of 5</div><img src=""problem_1.png"" style=""max-width: 900px; border-radius: 10px; box-shadow: 0 4px 6px rgba(0, 0, 0, 0.3);""><div style=""margin-top: 25px; display: flex; align-items: center; gap: 15px;""><label style=""font-size: 18px;"">Return value:</label><input type=""number"" id=""answer-input-0"" style=""font-size: 22px; padding: 12px 20px; width: 180px; text-align: center; border: 2px solid #4CAF50; border-radius: 8px;"" placeholder=""Enter number""></div></div>",0,,problem,GreenHouse,1,Low,7651,7651,true
,,,,,html-button-response,6,276625,0.0-6.0,11,1,2026-01-26 07:34:59,74232d8b0e4be341c6e5f2f2ebfe01be,163.152.3.138,"Mozilla/5.0 (Windows NT 10.0; Win64; x64) AppleWebKit/537.36 (KHTML, like Gecko) Chrome/144.0.0.0 Safari/537.36",WebKit,Chrome,144.0.0.0,Windows,10.0,null,"ko-KR,ko;q=0.9,en-US;q=0.8,en;q=0.7",1804,"<h3>Problem 1 Complete</h3><p>Take a short break if needed.</p><p>Click ""Next"" when you are ready for the next problem.</p>",0,,,,,,,,
,,,,,html-button-response,7,307520,0.0-7.0,11,1,2026-01-26 07:34:59,74232d8b0e4be341c6e5f2f2ebfe01be,163.152.3.138,"Mozilla/5.0 (Windows NT 10.0; Win64; x64) AppleWebKit/537.36 (KHTML, like Gecko) Chrome/144.0.0.0 Safari/537.36",WebKit,Chrome,144.0.0.0,Windows,10.0,null,"ko-KR,ko;q=0.9,en-US;q=0.8,en;q=0.7",30894,"<div style=""display: flex; flex-direction: column; align-items: center;""><div style=""font-size: 18px; color: #666; margin-bottom: 15px;"">Problem 2 of 5</div><img src=""problem_2.png"" style=""max-width: 900px; border-radius: 10px; box-shadow: 0 4px 6px rgba(0, 0, 0, 0.3);""><div style=""margin-top: 25px; display: flex; align-items: center; gap: 15px;""><label style=""font-size: 18px;"">Return value:</label><input type=""number"" id=""answer-input-1"" style=""font-size: 22px; padding: 12px 20px; width: 180px; text-align: center; border: 2px solid #4CAF50; border-radius: 8px;"" placeholder=""Enter number""></div></div>",0,,problem,HubPool,2,Medium,954,954,true
,,,,,html-button-response,8,309230,0.0-8.0,11,1,2026-01-26 07:34:59,74232d8b0e4be341c6e5f2f2ebfe01be,163.152.3.138,"Mozilla/5.0 (Windows NT 10.0; Win64; x64) AppleWebKit/537.36 (KHTML, like Gecko) Chrome/144.0.0.0 Safari/537.36",WebKit,Chrome,144.0.0.0,Windows,10.0,null,"ko-KR,ko;q=0.9,en-US;q=0.8,en;q=0.7",1709,"<h3>Problem 2 Complete</h3><p>Take a short break if needed.</p><p>Click ""Next"" when you are ready for the next problem.</p>",0,,,,,,,,
,,,,,html-button-response,9,340649,0.0-9.0,11,1,2026-01-26 07:34:59,74232d8b0e4be341c6e5f2f2ebfe01be,163.152.3.138,"Mozilla/5.0 (Windows NT 10.0; Win64; x64) AppleWebKit/537.36 (KHTML, like Gecko) Chrome/144.0.0.0 Safari/537.36",WebKit,Chrome,144.0.0.0,Windows,10.0,null,"ko-KR,ko;q=0.9,en-US;q=0.8,en;q=0.7",31417,"<div style=""display: flex; flex-direction: column; align-items: center;""><div style=""font-size: 18px; color: #666; margin-bottom: 15px;"">Problem 3 of 5</div><img src=""problem_3.png"" style=""max-width: 900px; border-radius: 10px; box-shadow: 0 4px 6px rgba(0, 0, 0, 0.3);""><div style=""margin-top: 25px; display: flex; align-items: center; gap: 15px;""><label style=""font-size: 18px;"">Return value:</label><input type=""number"" id=""answer-input-2"" style=""font-size: 22px; padding: 12px 20px; width: 180px; text-align: center; border: 2px solid #4CAF50; border-radius: 8px;"" placeholder=""Enter number""></div></div>",0,,problem,PercentageFeeModel,3,Medium-High,85,85,true
,,,,,html-button-response,10,342155,0.0-10.0,11,1,2026-01-26 07:34:59,74232d8b0e4be341c6e5f2f2ebfe01be,163.152.3.138,"Mozilla/5.0 (Windows NT 10.0; Win64; x64) AppleWebKit/537.36 (KHTML, like Gecko) Chrome/144.0.0.0 Safari/537.36",WebKit,Chrome,144.0.0.0,Windows,10.0,null,"ko-KR,ko;q=0.9,en-US;q=0.8,en;q=0.7",1505,"<h3>Problem 3 Complete</h3><p>Take a short break if needed.</p><p>Click ""Next"" when you are ready for the next problem.</p>",0,,,,,,,,
,,,,,html-button-response,11,371203,0.0-11.0,11,1,2026-01-26 07:34:59,74232d8b0e4be341c6e5f2f2ebfe01be,163.152.3.138,"Mozilla/5.0 (Windows NT 10.0; Win64; x64) AppleWebKit/537.36 (KHTML, like Gecko) Chrome/144.0.0.0 Safari/537.36",WebKit,Chrome,144.0.0.0,Windows,10.0,null,"ko-KR,ko;q=0.9,en-US;q=0.8,en;q=0.7",29048,"<div style=""display: flex; flex-direction: column; align-items: center;""><div style=""font-size: 18px; color: #666; margin-bottom: 15px;"">Problem 4 of 5</div><img src=""problem_4.png"" style=""max-width: 900px; border-radius: 10px; box-shadow: 0 4px 6px rgba(0, 0, 0, 0.3);""><div style=""margin-top: 25px; display: flex; align-items: center; gap: 15px;""><label style=""font-size: 18px;"">Return value:</label><input type=""number"" id=""answer-input-3"" style=""font-size: 22px; padding: 12px 20px; width: 180px; text-align: center; border: 2px solid #4CAF50; border-radius: 8px;"" placeholder=""Enter number""></div></div>",0,,problem,LockupContract,4,High,6000,6000,true
,,,,,html-button-response,12,372792,0.0-12.0,11,1,2026-01-26 07:34:59,74232d8b0e4be341c6e5f2f2ebfe01be,163.152.3.138,"Mozilla/5.0 (Windows NT 10.0; Win64; x64) AppleWebKit/537.36 (KHTML, like Gecko) Chrome/144.0.0.0 Safari/537.36",WebKit,Chrome,144.0.0.0,Windows,10.0,null,"ko-KR,ko;q=0.9,en-US;q=0.8,en;q=0.7",1588,"<h3>Problem 4 Complete</h3><p>Take a short break if needed.</p><p>Click ""Next"" when you are ready for the next problem.</p>",0,,,,,,,,
,,,,,html-button-response,13,587159,0.0-13.0,11,1,2026-01-26 07:34:59,74232d8b0e4be341c6e5f2f2ebfe01be,163.152.3.138,"Mozilla/5.0 (Windows NT 10.0; Win64; x64) AppleWebKit/537.36 (KHTML, like Gecko) Chrome/144.0.0.0 Safari/537.36",WebKit,Chrome,144.0.0.0,Windows,10.0,null,"ko-KR,ko;q=0.9,en-US;q=0.8,en;q=0.7",214367,"<div style=""display: flex; flex-direction: column; align-items: center;""><div style=""font-size: 18px; color: #666; margin-bottom: 15px;"">Problem 5 of 5</div><img src=""problem_5.png"" style=""max-width: 900px; border-radius: 10px; box-shadow: 0 4px 6px rgba(0, 0, 0, 0.3);""><div style=""margin-top: 25px; display: flex; align-items: center; gap: 15px;""><label style=""font-size: 18px;"">Return value:</label><input type=""number"" id=""answer-input-4"" style=""font-size: 22px; padding: 12px 20px; width: 180px; text-align: center; border: 2px solid #4CAF50; border-radius: 8px;"" placeholder=""Enter number""></div></div>",0,,problem,Lock,5,High,6800,6800,true
,,,,,survey-multi-choice,14,624734,0.0-14.0,11,1,2026-01-26 07:34:59,74232d8b0e4be341c6e5f2f2ebfe01be,163.152.3.138,"Mozilla/5.0 (Windows NT 10.0; Win64; x64) AppleWebKit/537.36 (KHTML, like Gecko) Chrome/144.0.0.0 Safari/537.36",WebKit,Chrome,144.0.0.0,Windows,10.0,null,"ko-KR,ko;q=0.9,en-US;q=0.8,en;q=0.7",37573,,"{""tools_used"":""AI (e.g., ChatGPT, Claude, Copilot)""}",[0],,,,,,,
,,,,,html-button-response,15,626048,0.0-15.0,11,1,2026-01-26 07:34:59,74232d8b0e4be341c6e5f2f2ebfe01be,163.152.3.138,"Mozilla/5.0 (Windows NT 10.0; Win64; x64) AppleWebKit/537.36 (KHTML, like Gecko) Chrome/144.0.0.0 Safari/537.36",WebKit,Chrome,144.0.0.0,Windows,10.0,null,"ko-KR,ko;q=0.9,en-US;q=0.8,en;q=0.7",1313,<h1>Thank You!</h1><p>Your responses have been recorded.</p><p>Thank you for participating in this study.</p>,0,,,,,,,,
true,false,[],[],[],preload,0,147,0.0-0.0,13,1,2026-01-26 09:45:38,74232d8b0e4be341c6e5f2f2ebfe01be,121.134.38.42,"Mozilla/5.0 (Windows NT 10.0; Win64; x64) AppleWebKit/537.36 (KHTML, like Gecko) Chrome/144.0.0.0 Safari/537.36",WebKit,Chrome,144.0.0.0,Windows,10.0,null,"ko,en-US;q=0.9,en;q=0.8,sm;q=0.7",,,,,,,,,,,
,,,,,html-button-response,1,17816,0.0-1.0,13,1,2026-01-26 09:45:38,74232d8b0e4be341c6e5f2f2ebfe01be,121.134.38.42,"Mozilla/5.0 (Windows NT 10.0; Win64; x64) AppleWebKit/537.36 (KHTML, like Gecko) Chrome/144.0.0.0 Safari/537.36",WebKit,Chrome,144.0.0.0,Windows,10.0,null,"ko,en-US;q=0.9,en;q=0.8,sm;q=0.7",17668,"<h1>Program Comprehension Study</h1><div style=""text-align: left; max-width: 800px; margin: 0 auto; line-height: 1.8;""><p>Thank you for participating in this study.</p><p>In this experiment, you will be shown <strong>5 code snippets</strong> with input values. Your task is to <strong>calculate the return value</strong> of each function.</p><p><strong>Important:</strong></p><ul><li>You may use a calculator for arithmetic operations.</li><li>Take your time to understand the code before answering.</li><li>Your response time will be recorded.</li></ul><p>The study takes approximately <strong>15-20 minutes</strong>.</p><p>By clicking ""I Agree"", you consent to participate in this study.</p></div>",0,,,,,,,,
,,,,,survey-text,2,30204,0.0-2.0,13,1,2026-01-26 09:45:38,74232d8b0e4be341c6e5f2f2ebfe01be,121.134.38.42,"Mozilla/5.0 (Windows NT 10.0; Win64; x64) AppleWebKit/537.36 (KHTML, like Gecko) Chrome/144.0.0.0 Safari/537.36",WebKit,Chrome,144.0.0.0,Windows,10.0,null,"ko,en-US;q=0.9,en;q=0.8,sm;q=0.7",12385,,"{""name"":""Seungkwon Lee"",""email"":""peaceskl@naver.com""}",,,,,,,,
,,,,,survey-multi-choice,3,51146,0.0-3.0,13,1,2026-01-26 09:45:38,74232d8b0e4be341c6e5f2f2ebfe01be,121.134.38.42,"Mozilla/5.0 (Windows NT 10.0; Win64; x64) AppleWebKit/537.36 (KHTML, like Gecko) Chrome/144.0.0.0 Safari/537.36",WebKit,Chrome,144.0.0.0,Windows,10.0,null,"ko,en-US;q=0.9,en;q=0.8,sm;q=0.7",20941,,"{""programming_exp"":""3-5 years"",""solidity_exp"":""Intermediate (written some contracts)"",""role"":""Graduate Student""}","[0,1,2]",,,,,,,
,,,,,html-button-response,4,60658,0.0-4.0,13,1,2026-01-26 09:45:38,74232d8b0e4be341c6e5f2f2ebfe01be,121.134.38.42,"Mozilla/5.0 (Windows NT 10.0; Win64; x64) AppleWebKit/537.36 (KHTML, like Gecko) Chrome/144.0.0.0 Safari/537.36",WebKit,Chrome,144.0.0.0,Windows,10.0,null,"ko,en-US;q=0.9,en;q=0.8,sm;q=0.7",9510,"<h2>Instructions</h2><div style=""text-align: left; max-width: 800px; margin: 0 auto; line-height: 1.8;""><p>You will now see 5 problems. For each problem:</p><ol><li>Read the code carefully</li><li>Note the input values provided</li><li>Calculate the return value of the function</li><li>Enter your answer in the text box below the code</li><li>Click ""Submit"" when ready</li></ol><p><strong>Note:</strong> Enter only the numeric value (e.g., 1234), not variable names or expressions.</p><p>Click ""Start"" when you are ready.</p></div>",0,,,,,,,,
,,,,,html-button-response,5,198433,0.0-5.0,13,1,2026-01-26 09:45:38,74232d8b0e4be341c6e5f2f2ebfe01be,121.134.38.42,"Mozilla/5.0 (Windows NT 10.0; Win64; x64) AppleWebKit/537.36 (KHTML, like Gecko) Chrome/144.0.0.0 Safari/537.36",WebKit,Chrome,144.0.0.0,Windows,10.0,null,"ko,en-US;q=0.9,en;q=0.8,sm;q=0.7",137773,"<div style=""display: flex; flex-direction: column; align-items: center;""><div style=""font-size: 18px; color: #666; margin-bottom: 15px;"">Problem 1 of 5</div><img src=""problem_1.png"" style=""max-width: 900px; border-radius: 10px; box-shadow: 0 4px 6px rgba(0, 0, 0, 0.3);""><div style=""margin-top: 25px; display: flex; align-items: center; gap: 15px;""><label style=""font-size: 18px;"">Return value:</label><input type=""number"" id=""answer-input-0"" style=""font-size: 22px; padding: 12px 20px; width: 180px; text-align: center; border: 2px solid #4CAF50; border-radius: 8px;"" placeholder=""Enter number""></div></div>",0,,problem,GreenHouse,1,Low,7651,7650,false
,,,,,html-button-response,6,201711,0.0-6.0,13,1,2026-01-26 09:45:38,74232d8b0e4be341c6e5f2f2ebfe01be,121.134.38.42,"Mozilla/5.0 (Windows NT 10.0; Win64; x64) AppleWebKit/537.36 (KHTML, like Gecko) Chrome/144.0.0.0 Safari/537.36",WebKit,Chrome,144.0.0.0,Windows,10.0,null,"ko,en-US;q=0.9,en;q=0.8,sm;q=0.7",3277,"<h3>Problem 1 Complete</h3><p>Take a short break if needed.</p><p>Click ""Next"" when you are ready for the next problem.</p>",0,,,,,,,,
,,,,,html-button-response,7,309260,0.0-7.0,13,1,2026-01-26 09:45:38,74232d8b0e4be341c6e5f2f2ebfe01be,121.134.38.42,"Mozilla/5.0 (Windows NT 10.0; Win64; x64) AppleWebKit/537.36 (KHTML, like Gecko) Chrome/144.0.0.0 Safari/537.36",WebKit,Chrome,144.0.0.0,Windows,10.0,null,"ko,en-US;q=0.9,en;q=0.8,sm;q=0.7",107548,"<div style=""display: flex; flex-direction: column; align-items: center;""><div style=""font-size: 18px; color: #666; margin-bottom: 15px;"">Problem 2 of 5</div><img src=""problem_2.png"" style=""max-width: 900px; border-radius: 10px; box-shadow: 0 4px 6px rgba(0, 0, 0, 0.3);""><div style=""margin-top: 25px; display: flex; align-items: center; gap: 15px;""><label style=""font-size: 18px;"">Return value:</label><input type=""number"" id=""answer-input-1"" style=""font-size: 22px; padding: 12px 20px; width: 180px; text-align: center; border: 2px solid #4CAF50; border-radius: 8px;"" placeholder=""Enter number""></div></div>",0,,problem,HubPool,2,Medium,954,954,true
,,,,,html-button-response,8,311097,0.0-8.0,13,1,2026-01-26 09:45:38,74232d8b0e4be341c6e5f2f2ebfe01be,121.134.38.42,"Mozilla/5.0 (Windows NT 10.0; Win64; x64) AppleWebKit/537.36 (KHTML, like Gecko) Chrome/144.0.0.0 Safari/537.36",WebKit,Chrome,144.0.0.0,Windows,10.0,null,"ko,en-US;q=0.9,en;q=0.8,sm;q=0.7",1836,"<h3>Problem 2 Complete</h3><p>Take a short break if needed.</p><p>Click ""Next"" when you are ready for the next problem.</p>",0,,,,,,,,
,,,,,html-button-response,9,411652,0.0-9.0,13,1,2026-01-26 09:45:38,74232d8b0e4be341c6e5f2f2ebfe01be,121.134.38.42,"Mozilla/5.0 (Windows NT 10.0; Win64; x64) AppleWebKit/537.36 (KHTML, like Gecko) Chrome/144.0.0.0 Safari/537.36",WebKit,Chrome,144.0.0.0,Windows,10.0,null,"ko,en-US;q=0.9,en;q=0.8,sm;q=0.7",100553,"<div style=""display: flex; flex-direction: column; align-items: center;""><div style=""font-size: 18px; color: #666; margin-bottom: 15px;"">Problem 3 of 5</div><img src=""problem_3.png"" style=""max-width: 900px; border-radius: 10px; box-shadow: 0 4px 6px rgba(0, 0, 0, 0.3);""><div style=""margin-top: 25px; display: flex; align-items: center; gap: 15px;""><label style=""font-size: 18px;"">Return value:</label><input type=""number"" id=""answer-input-2"" style=""font-size: 22px; padding: 12px 20px; width: 180px; text-align: center; border: 2px solid #4CAF50; border-radius: 8px;"" placeholder=""Enter number""></div></div>",0,,problem,PercentageFeeModel,3,Medium-High,85,85,true
,,,,,html-button-response,10,472926,0.0-10.0,13,1,2026-01-26 09:45:38,74232d8b0e4be341c6e5f2f2ebfe01be,121.134.38.42,"Mozilla/5.0 (Windows NT 10.0; Win64; x64) AppleWebKit/537.36 (KHTML, like Gecko) Chrome/144.0.0.0 Safari/537.36",WebKit,Chrome,144.0.0.0,Windows,10.0,null,"ko,en-US;q=0.9,en;q=0.8,sm;q=0.7",61273,"<h3>Problem 3 Complete</h3><p>Take a short break if needed.</p><p>Click ""Next"" when you are ready for the next problem.</p>",0,,,,,,,,
,,,,,html-button-response,11,580831,0.0-11.0,13,1,2026-01-26 09:45:38,74232d8b0e4be341c6e5f2f2ebfe01be,121.134.38.42,"Mozilla/5.0 (Windows NT 10.0; Win64; x64) AppleWebKit/537.36 (KHTML, like Gecko) Chrome/144.0.0.0 Safari/537.36",WebKit,Chrome,144.0.0.0,Windows,10.0,null,"ko,en-US;q=0.9,en;q=0.8,sm;q=0.7",107903,"<div style=""display: flex; flex-direction: column; align-items: center;""><div style=""font-size: 18px; color: #666; margin-bottom: 15px;"">Problem 4 of 5</div><img src=""problem_4.png"" style=""max-width: 900px; border-radius: 10px; box-shadow: 0 4px 6px rgba(0, 0, 0, 0.3);""><div style=""margin-top: 25px; display: flex; align-items: center; gap: 15px;""><label style=""font-size: 18px;"">Return value:</label><input type=""number"" id=""answer-input-3"" style=""font-size: 22px; padding: 12px 20px; width: 180px; text-align: center; border: 2px solid #4CAF50; border-radius: 8px;"" placeholder=""Enter number""></div></div>",0,,problem,LockupContract,4,High,6000,6000,true
,,,,,html-button-response,12,582023,0.0-12.0,13,1,2026-01-26 09:45:38,74232d8b0e4be341c6e5f2f2ebfe01be,121.134.38.42,"Mozilla/5.0 (Windows NT 10.0; Win64; x64) AppleWebKit/537.36 (KHTML, like Gecko) Chrome/144.0.0.0 Safari/537.36",WebKit,Chrome,144.0.0.0,Windows,10.0,null,"ko,en-US;q=0.9,en;q=0.8,sm;q=0.7",1190,"<h3>Problem 4 Complete</h3><p>Take a short break if needed.</p><p>Click ""Next"" when you are ready for the next problem.</p>",0,,,,,,,,
,,,,,html-button-response,13,734200,0.0-13.0,13,1,2026-01-26 09:45:38,74232d8b0e4be341c6e5f2f2ebfe01be,121.134.38.42,"Mozilla/5.0 (Windows NT 10.0; Win64; x64) AppleWebKit/537.36 (KHTML, like Gecko) Chrome/144.0.0.0 Safari/537.36",WebKit,Chrome,144.0.0.0,Windows,10.0,null,"ko,en-US;q=0.9,en;q=0.8,sm;q=0.7",152176,"<div style=""display: flex; flex-direction: column; align-items: center;""><div style=""font-size: 18px; color: #666; margin-bottom: 15px;"">Problem 5 of 5</div><img src=""problem_5.png"" style=""max-width: 900px; border-radius: 10px; box-shadow: 0 4px 6px rgba(0, 0, 0, 0.3);""><div style=""margin-top: 25px; display: flex; align-items: center; gap: 15px;""><label style=""font-size: 18px;"">Return value:</label><input type=""number"" id=""answer-input-4"" style=""font-size: 22px; padding: 12px 20px; width: 180px; text-align: center; border: 2px solid #4CAF50; border-radius: 8px;"" placeholder=""Enter number""></div></div>",0,,problem,Lock,5,High,6800,6800,true
,,,,,survey-multi-choice,14,740722,0.0-14.0,13,1,2026-01-26 09:45:38,74232d8b0e4be341c6e5f2f2ebfe01be,121.134.38.42,"Mozilla/5.0 (Windows NT 10.0; Win64; x64) AppleWebKit/537.36 (KHTML, like Gecko) Chrome/144.0.0.0 Safari/537.36",WebKit,Chrome,144.0.0.0,Windows,10.0,null,"ko,en-US;q=0.9,en;q=0.8,sm;q=0.7",6520,,"{""tools_used"":""Calculator""}",[0],,,,,,,
,,,,,html-button-response,15,746194,0.0-15.0,13,1,2026-01-26 09:45:38,74232d8b0e4be341c6e5f2f2ebfe01be,121.134.38.42,"Mozilla/5.0 (Windows NT 10.0; Win64; x64) AppleWebKit/537.36 (KHTML, like Gecko) Chrome/144.0.0.0 Safari/537.36",WebKit,Chrome,144.0.0.0,Windows,10.0,null,"ko,en-US;q=0.9,en;q=0.8,sm;q=0.7",5471,<h1>Thank You!</h1><p>Your responses have been recorded.</p><p>Thank you for participating in this study.</p>,0,,,,,,,,
true,false,[],[],[],preload,0,128,0.0-0.0,16,1,2026-01-26 12:59:47,74232d8b0e4be341c6e5f2f2ebfe01be,163.152.161.62,"Mozilla/5.0 (Windows NT 10.0; Win64; x64) AppleWebKit/537.36 (KHTML, like Gecko) Chrome/144.0.0.0 Safari/537.36 Edg/144.0.0.0",WebKit,Edge,144.0.0.0,Windows,10.0,null,"ko,en;q=0.9,en-US;q=0.8",,,,,,,,,,,
,,,,,html-button-response,1,7483,0.0-1.0,16,1,2026-01-26 12:59:47,74232d8b0e4be341c6e5f2f2ebfe01be,163.152.161.62,"Mozilla/5.0 (Windows NT 10.0; Win64; x64) AppleWebKit/537.36 (KHTML, like Gecko) Chrome/144.0.0.0 Safari/537.36 Edg/144.0.0.0",WebKit,Edge,144.0.0.0,Windows,10.0,null,"ko,en;q=0.9,en-US;q=0.8",7354,"<h1>Program Comprehension Study</h1><div style=""text-align: left; max-width: 800px; margin: 0 auto; line-height: 1.8;""><p>Thank you for participating in this study.</p><p>In this experiment, you will be shown <strong>5 code snippets</strong> with input values. Your task is to <strong>calculate the return value</strong> of each function.</p><p><strong>Important:</strong></p><ul><li>You may use a calculator for arithmetic operations.</li><li>Take your time to understand the code before answering.</li><li>Your response time will be recorded.</li></ul><p>The study takes approximately <strong>15-20 minutes</strong>.</p><p>By clicking ""I Agree"", you consent to participate in this study.</p></div>",0,,,,,,,,
,,,,,survey-text,2,14073,0.0-2.0,16,1,2026-01-26 12:59:47,74232d8b0e4be341c6e5f2f2ebfe01be,163.152.161.62,"Mozilla/5.0 (Windows NT 10.0; Win64; x64) AppleWebKit/537.36 (KHTML, like Gecko) Chrome/144.0.0.0 Safari/537.36 Edg/144.0.0.0",WebKit,Edge,144.0.0.0,Windows,10.0,null,"ko,en;q=0.9,en-US;q=0.8",6587,,"{""name"":""junsung"",""email"":""pop311""}",,,,,,,,
,,,,,survey-multi-choice,3,28649,0.0-3.0,16,1,2026-01-26 12:59:47,74232d8b0e4be341c6e5f2f2ebfe01be,163.152.161.62,"Mozilla/5.0 (Windows NT 10.0; Win64; x64) AppleWebKit/537.36 (KHTML, like Gecko) Chrome/144.0.0.0 Safari/537.36 Edg/144.0.0.0",WebKit,Edge,144.0.0.0,Windows,10.0,null,"ko,en;q=0.9,en-US;q=0.8",14576,,"{""programming_exp"":""3-5 years"",""solidity_exp"":""Advanced (deployed contracts)"",""role"":""Researcher""}","[0,1,2]",,,,,,,
,,,,,html-button-response,4,33306,0.0-4.0,16,1,2026-01-26 12:59:47,74232d8b0e4be341c6e5f2f2ebfe01be,163.152.161.62,"Mozilla/5.0 (Windows NT 10.0; Win64; x64) AppleWebKit/537.36 (KHTML, like Gecko) Chrome/144.0.0.0 Safari/537.36 Edg/144.0.0.0",WebKit,Edge,144.0.0.0,Windows,10.0,null,"ko,en;q=0.9,en-US;q=0.8",4656,"<h2>Instructions</h2><div style=""text-align: left; max-width: 800px; margin: 0 auto; line-height: 1.8;""><p>You will now see 5 problems. For each problem:</p><ol><li>Read the code carefully</li><li>Note the input values provided</li><li>Calculate the return value of the function</li><li>Enter your answer in the text box below the code</li><li>Click ""Submit"" when ready</li></ol><p><strong>Note:</strong> Enter only the numeric value (e.g., 1234), not variable names or expressions.</p><p>Click ""Start"" when you are ready.</p></div>",0,,,,,,,,
,,,,,html-button-response,5,134143,0.0-5.0,16,1,2026-01-26 12:59:47,74232d8b0e4be341c6e5f2f2ebfe01be,163.152.161.62,"Mozilla/5.0 (Windows NT 10.0; Win64; x64) AppleWebKit/537.36 (KHTML, like Gecko) Chrome/144.0.0.0 Safari/537.36 Edg/144.0.0.0",WebKit,Edge,144.0.0.0,Windows,10.0,null,"ko,en;q=0.9,en-US;q=0.8",100837,"<div style=""display: flex; flex-direction: column; align-items: center;""><div style=""font-size: 18px; color: #666; margin-bottom: 15px;"">Problem 1 of 5</div><img src=""problem_1.png"" style=""max-width: 900px; border-radius: 10px; box-shadow: 0 4px 6px rgba(0, 0, 0, 0.3);""><div style=""margin-top: 25px; display: flex; align-items: center; gap: 15px;""><label style=""font-size: 18px;"">Return value:</label><input type=""number"" id=""answer-input-0"" style=""font-size: 22px; padding: 12px 20px; width: 180px; text-align: center; border: 2px solid #4CAF50; border-radius: 8px;"" placeholder=""Enter number""></div></div>",0,,problem,GreenHouse,1,Low,7651,7651,true
,,,,,html-button-response,6,135837,0.0-6.0,16,1,2026-01-26 12:59:47,74232d8b0e4be341c6e5f2f2ebfe01be,163.152.161.62,"Mozilla/5.0 (Windows NT 10.0; Win64; x64) AppleWebKit/537.36 (KHTML, like Gecko) Chrome/144.0.0.0 Safari/537.36 Edg/144.0.0.0",WebKit,Edge,144.0.0.0,Windows,10.0,null,"ko,en;q=0.9,en-US;q=0.8",1693,"<h3>Problem 1 Complete</h3><p>Take a short break if needed.</p><p>Click ""Next"" when you are ready for the next problem.</p>",0,,,,,,,,
,,,,,html-button-response,7,1744613,0.0-7.0,16,1,2026-01-26 12:59:47,74232d8b0e4be341c6e5f2f2ebfe01be,163.152.161.62,"Mozilla/5.0 (Windows NT 10.0; Win64; x64) AppleWebKit/537.36 (KHTML, like Gecko) Chrome/144.0.0.0 Safari/537.36 Edg/144.0.0.0",WebKit,Edge,144.0.0.0,Windows,10.0,null,"ko,en;q=0.9,en-US;q=0.8",1608776,"<div style=""display: flex; flex-direction: column; align-items: center;""><div style=""font-size: 18px; color: #666; margin-bottom: 15px;"">Problem 2 of 5</div><img src=""problem_2.png"" style=""max-width: 900px; border-radius: 10px; box-shadow: 0 4px 6px rgba(0, 0, 0, 0.3);""><div style=""margin-top: 25px; display: flex; align-items: center; gap: 15px;""><label style=""font-size: 18px;"">Return value:</label><input type=""number"" id=""answer-input-1"" style=""font-size: 22px; padding: 12px 20px; width: 180px; text-align: center; border: 2px solid #4CAF50; border-radius: 8px;"" placeholder=""Enter number""></div></div>",0,,problem,HubPool,2,Medium,954,954,true
,,,,,html-button-response,8,1745588,0.0-8.0,16,1,2026-01-26 12:59:47,74232d8b0e4be341c6e5f2f2ebfe01be,163.152.161.62,"Mozilla/5.0 (Windows NT 10.0; Win64; x64) AppleWebKit/537.36 (KHTML, like Gecko) Chrome/144.0.0.0 Safari/537.36 Edg/144.0.0.0",WebKit,Edge,144.0.0.0,Windows,10.0,null,"ko,en;q=0.9,en-US;q=0.8",974,"<h3>Problem 2 Complete</h3><p>Take a short break if needed.</p><p>Click ""Next"" when you are ready for the next problem.</p>",0,,,,,,,,
,,,,,html-button-response,9,1788745,0.0-9.0,16,1,2026-01-26 12:59:47,74232d8b0e4be341c6e5f2f2ebfe01be,163.152.161.62,"Mozilla/5.0 (Windows NT 10.0; Win64; x64) AppleWebKit/537.36 (KHTML, like Gecko) Chrome/144.0.0.0 Safari/537.36 Edg/144.0.0.0",WebKit,Edge,144.0.0.0,Windows,10.0,null,"ko,en;q=0.9,en-US;q=0.8",43156,"<div style=""display: flex; flex-direction: column; align-items: center;""><div style=""font-size: 18px; color: #666; margin-bottom: 15px;"">Problem 3 of 5</div><img src=""problem_3.png"" style=""max-width: 900px; border-radius: 10px; box-shadow: 0 4px 6px rgba(0, 0, 0, 0.3);""><div style=""margin-top: 25px; display: flex; align-items: center; gap: 15px;""><label style=""font-size: 18px;"">Return value:</label><input type=""number"" id=""answer-input-2"" style=""font-size: 22px; padding: 12px 20px; width: 180px; text-align: center; border: 2px solid #4CAF50; border-radius: 8px;"" placeholder=""Enter number""></div></div>",0,,problem,PercentageFeeModel,3,Medium-High,85,85,true
,,,,,html-button-response,10,1789894,0.0-10.0,16,1,2026-01-26 12:59:47,74232d8b0e4be341c6e5f2f2ebfe01be,163.152.161.62,"Mozilla/5.0 (Windows NT 10.0; Win64; x64) AppleWebKit/537.36 (KHTML, like Gecko) Chrome/144.0.0.0 Safari/537.36 Edg/144.0.0.0",WebKit,Edge,144.0.0.0,Windows,10.0,null,"ko,en;q=0.9,en-US;q=0.8",1148,"<h3>Problem 3 Complete</h3><p>Take a short break if needed.</p><p>Click ""Next"" when you are ready for the next problem.</p>",0,,,,,,,,
,,,,,html-button-response,11,1837674,0.0-11.0,16,1,2026-01-26 12:59:47,74232d8b0e4be341c6e5f2f2ebfe01be,163.152.161.62,"Mozilla/5.0 (Windows NT 10.0; Win64; x64) AppleWebKit/537.36 (KHTML, like Gecko) Chrome/144.0.0.0 Safari/537.36 Edg/144.0.0.0",WebKit,Edge,144.0.0.0,Windows,10.0,null,"ko,en;q=0.9,en-US;q=0.8",47780,"<div style=""display: flex; flex-direction: column; align-items: center;""><div style=""font-size: 18px; color: #666; margin-bottom: 15px;"">Problem 4 of 5</div><img src=""problem_4.png"" style=""max-width: 900px; border-radius: 10px; box-shadow: 0 4px 6px rgba(0, 0, 0, 0.3);""><div style=""margin-top: 25px; display: flex; align-items: center; gap: 15px;""><label style=""font-size: 18px;"">Return value:</label><input type=""number"" id=""answer-input-3"" style=""font-size: 22px; padding: 12px 20px; width: 180px; text-align: center; border: 2px solid #4CAF50; border-radius: 8px;"" placeholder=""Enter number""></div></div>",0,,problem,LockupContract,4,High,6000,6000,true
,,,,,html-button-response,12,1839279,0.0-12.0,16,1,2026-01-26 12:59:47,74232d8b0e4be341c6e5f2f2ebfe01be,163.152.161.62,"Mozilla/5.0 (Windows NT 10.0; Win64; x64) AppleWebKit/537.36 (KHTML, like Gecko) Chrome/144.0.0.0 Safari/537.36 Edg/144.0.0.0",WebKit,Edge,144.0.0.0,Windows,10.0,null,"ko,en;q=0.9,en-US;q=0.8",1604,"<h3>Problem 4 Complete</h3><p>Take a short break if needed.</p><p>Click ""Next"" when you are ready for the next problem.</p>",0,,,,,,,,
,,,,,html-button-response,13,1891238,0.0-13.0,16,1,2026-01-26 12:59:47,74232d8b0e4be341c6e5f2f2ebfe01be,163.152.161.62,"Mozilla/5.0 (Windows NT 10.0; Win64; x64) AppleWebKit/537.36 (KHTML, like Gecko) Chrome/144.0.0.0 Safari/537.36 Edg/144.0.0.0",WebKit,Edge,144.0.0.0,Windows,10.0,null,"ko,en;q=0.9,en-US;q=0.8",51959,"<div style=""display: flex; flex-direction: column; align-items: center;""><div style=""font-size: 18px; color: #666; margin-bottom: 15px;"">Problem 5 of 5</div><img src=""problem_5.png"" style=""max-width: 900px; border-radius: 10px; box-shadow: 0 4px 6px rgba(0, 0, 0, 0.3);""><div style=""margin-top: 25px; display: flex; align-items: center; gap: 15px;""><label style=""font-size: 18px;"">Return value:</label><input type=""number"" id=""answer-input-4"" style=""font-size: 22px; padding: 12px 20px; width: 180px; text-align: center; border: 2px solid #4CAF50; border-radius: 8px;"" placeholder=""Enter number""></div></div>",0,,problem,Lock,5,High,6800,6800,true
,,,,,survey-multi-choice,14,1894966,0.0-14.0,16,1,2026-01-26 12:59:47,74232d8b0e4be341c6e5f2f2ebfe01be,163.152.161.62,"Mozilla/5.0 (Windows NT 10.0; Win64; x64) AppleWebKit/537.36 (KHTML, like Gecko) Chrome/144.0.0.0 Safari/537.36 Edg/144.0.0.0",WebKit,Edge,144.0.0.0,Windows,10.0,null,"ko,en;q=0.9,en-US;q=0.8",3727,,"{""tools_used"":""AI (e.g., ChatGPT, Claude, Copilot)""}",[0],,,,,,,
,,,,,html-button-response,15,1895994,0.0-15.0,16,1,2026-01-26 12:59:47,74232d8b0e4be341c6e5f2f2ebfe01be,163.152.161.62,"Mozilla/5.0 (Windows NT 10.0; Win64; x64) AppleWebKit/537.36 (KHTML, like Gecko) Chrome/144.0.0.0 Safari/537.36 Edg/144.0.0.0",WebKit,Edge,144.0.0.0,Windows,10.0,null,"ko,en;q=0.9,en-US;q=0.8",1028,<h1>Thank You!</h1><p>Your responses have been recorded.</p><p>Thank you for participating in this study.</p>,0,,,,,,,,
true,false,[],[],[],preload,0,261,0.0-0.0,18,1,2026-01-27 02:03:30,74232d8b0e4be341c6e5f2f2ebfe01be,121.160.109.238,"Mozilla/5.0 (Macintosh; Intel Mac OS X 10_15_7) AppleWebKit/537.36 (KHTML, like Gecko) Chrome/143.0.0.0 Safari/537.36",Macintosh,Chrome,143.0.0.0,OS X,10_15_7,null,"ko-KR,ko;q=0.9,en-US;q=0.8,en;q=0.7",,,,,,,,,,,
,,,,,html-button-response,1,8610,0.0-1.0,18,1,2026-01-27 02:03:30,74232d8b0e4be341c6e5f2f2ebfe01be,121.160.109.238,"Mozilla/5.0 (Macintosh; Intel Mac OS X 10_15_7) AppleWebKit/537.36 (KHTML, like Gecko) Chrome/143.0.0.0 Safari/537.36",Macintosh,Chrome,143.0.0.0,OS X,10_15_7,null,"ko-KR,ko;q=0.9,en-US;q=0.8,en;q=0.7",8348,"<h1>Program Comprehension Study</h1><div style=""text-align: left; max-width: 800px; margin: 0 auto; line-height: 1.8;""><p>Thank you for participating in this study.</p><p>In this experiment, you will be shown <strong>5 code snippets</strong> with input values. Your task is to <strong>calculate the return value</strong> of each function.</p><p><strong>Important:</strong></p><ul><li>You may use a calculator for arithmetic operations.</li><li>Take your time to understand the code before answering.</li><li>Your response time will be recorded.</li></ul><p>The study takes approximately <strong>15-20 minutes</strong>.</p><p>By clicking ""I Agree"", you consent to participate in this study.</p></div>",0,,,,,,,,
,,,,,survey-text,2,16225,0.0-2.0,18,1,2026-01-27 02:03:30,74232d8b0e4be341c6e5f2f2ebfe01be,121.160.109.238,"Mozilla/5.0 (Macintosh; Intel Mac OS X 10_15_7) AppleWebKit/537.36 (KHTML, like Gecko) Chrome/143.0.0.0 Safari/537.36",Macintosh,Chrome,143.0.0.0,OS X,10_15_7,null,"ko-KR,ko;q=0.9,en-US;q=0.8,en;q=0.7",7610,,"{""name"":""이상현"",""email"":""dltkdgus405@korea.ac.kr""}",,,,,,,,
,,,,,survey-multi-choice,3,26657,0.0-3.0,18,1,2026-01-27 02:03:30,74232d8b0e4be341c6e5f2f2ebfe01be,121.160.109.238,"Mozilla/5.0 (Macintosh; Intel Mac OS X 10_15_7) AppleWebKit/537.36 (KHTML, like Gecko) Chrome/143.0.0.0 Safari/537.36",Macintosh,Chrome,143.0.0.0,OS X,10_15_7,null,"ko-KR,ko;q=0.9,en-US;q=0.8,en;q=0.7",10430,,"{""programming_exp"":""More than 5 years"",""solidity_exp"":""Intermediate (written some contracts)"",""role"":""Graduate Student""}","[0,1,2]",,,,,,,
,,,,,html-button-response,4,30654,0.0-4.0,18,1,2026-01-27 02:03:30,74232d8b0e4be341c6e5f2f2ebfe01be,121.160.109.238,"Mozilla/5.0 (Macintosh; Intel Mac OS X 10_15_7) AppleWebKit/537.36 (KHTML, like Gecko) Chrome/143.0.0.0 Safari/537.36",Macintosh,Chrome,143.0.0.0,OS X,10_15_7,null,"ko-KR,ko;q=0.9,en-US;q=0.8,en;q=0.7",3995,"<h2>Instructions</h2><div style=""text-align: left; max-width: 800px; margin: 0 auto; line-height: 1.8;""><p>You will now see 5 problems. For each problem:</p><ol><li>Read the code carefully</li><li>Note the input values provided</li><li>Calculate the return value of the function</li><li>Enter your answer in the text box below the code</li><li>Click ""Submit"" when ready</li></ol><p><strong>Note:</strong> Enter only the numeric value (e.g., 1234), not variable names or expressions.</p><p>Click ""Start"" when you are ready.</p></div>",0,,,,,,,,
,,,,,html-button-response,5,274321,0.0-5.0,18,1,2026-01-27 02:03:30,74232d8b0e4be341c6e5f2f2ebfe01be,121.160.109.238,"Mozilla/5.0 (Macintosh; Intel Mac OS X 10_15_7) AppleWebKit/537.36 (KHTML, like Gecko) Chrome/143.0.0.0 Safari/537.36",Macintosh,Chrome,143.0.0.0,OS X,10_15_7,null,"ko-KR,ko;q=0.9,en-US;q=0.8,en;q=0.7",243674,"<div style=""display: flex; flex-direction: column; align-items: center;""><div style=""font-size: 18px; color: #666; margin-bottom: 15px;"">Problem 1 of 5</div><img src=""problem_1.png"" style=""max-width: 900px; border-radius: 10px; box-shadow: 0 4px 6px rgba(0, 0, 0, 0.3);""><div style=""margin-top: 25px; display: flex; align-items: center; gap: 15px;""><label style=""font-size: 18px;"">Return value:</label><input type=""number"" id=""answer-input-0"" style=""font-size: 22px; padding: 12px 20px; width: 180px; text-align: center; border: 2px solid #4CAF50; border-radius: 8px;"" placeholder=""Enter number""></div></div>",0,,problem,GreenHouse,1,Low,7651,7651,true
,,,,,html-button-response,6,276834,0.0-6.0,18,1,2026-01-27 02:03:30,74232d8b0e4be341c6e5f2f2ebfe01be,121.160.109.238,"Mozilla/5.0 (Macintosh; Intel Mac OS X 10_15_7) AppleWebKit/537.36 (KHTML, like Gecko) Chrome/143.0.0.0 Safari/537.36",Macintosh,Chrome,143.0.0.0,OS X,10_15_7,null,"ko-KR,ko;q=0.9,en-US;q=0.8,en;q=0.7",2510,"<h3>Problem 1 Complete</h3><p>Take a short break if needed.</p><p>Click ""Next"" when you are ready for the next problem.</p>",0,,,,,,,,
,,,,,html-button-response,7,305946,0.0-7.0,18,1,2026-01-27 02:03:30,74232d8b0e4be341c6e5f2f2ebfe01be,121.160.109.238,"Mozilla/5.0 (Macintosh; Intel Mac OS X 10_15_7) AppleWebKit/537.36 (KHTML, like Gecko) Chrome/143.0.0.0 Safari/537.36",Macintosh,Chrome,143.0.0.0,OS X,10_15_7,null,"ko-KR,ko;q=0.9,en-US;q=0.8,en;q=0.7",29112,"<div style=""display: flex; flex-direction: column; align-items: center;""><div style=""font-size: 18px; color: #666; margin-bottom: 15px;"">Problem 2 of 5</div><img src=""problem_2.png"" style=""max-width: 900px; border-radius: 10px; box-shadow: 0 4px 6px rgba(0, 0, 0, 0.3);""><div style=""margin-top: 25px; display: flex; align-items: center; gap: 15px;""><label style=""font-size: 18px;"">Return value:</label><input type=""number"" id=""answer-input-1"" style=""font-size: 22px; padding: 12px 20px; width: 180px; text-align: center; border: 2px solid #4CAF50; border-radius: 8px;"" placeholder=""Enter number""></div></div>",0,,problem,HubPool,2,Medium,954,954,true
,,,,,html-button-response,8,307043,0.0-8.0,18,1,2026-01-27 02:03:30,74232d8b0e4be341c6e5f2f2ebfe01be,121.160.109.238,"Mozilla/5.0 (Macintosh; Intel Mac OS X 10_15_7) AppleWebKit/537.36 (KHTML, like Gecko) Chrome/143.0.0.0 Safari/537.36",Macintosh,Chrome,143.0.0.0,OS X,10_15_7,null,"ko-KR,ko;q=0.9,en-US;q=0.8,en;q=0.7",1095,"<h3>Problem 2 Complete</h3><p>Take a short break if needed.</p><p>Click ""Next"" when you are ready for the next problem.</p>",0,,,,,,,,
,,,,,html-button-response,9,383515,0.0-9.0,18,1,2026-01-27 02:03:30,74232d8b0e4be341c6e5f2f2ebfe01be,121.160.109.238,"Mozilla/5.0 (Macintosh; Intel Mac OS X 10_15_7) AppleWebKit/537.36 (KHTML, like Gecko) Chrome/143.0.0.0 Safari/537.36",Macintosh,Chrome,143.0.0.0,OS X,10_15_7,null,"ko-KR,ko;q=0.9,en-US;q=0.8,en;q=0.7",76472,"<div style=""display: flex; flex-direction: column; align-items: center;""><div style=""font-size: 18px; color: #666; margin-bottom: 15px;"">Problem 3 of 5</div><img src=""problem_3.png"" style=""max-width: 900px; border-radius: 10px; box-shadow: 0 4px 6px rgba(0, 0, 0, 0.3);""><div style=""margin-top: 25px; display: flex; align-items: center; gap: 15px;""><label style=""font-size: 18px;"">Return value:</label><input type=""number"" id=""answer-input-2"" style=""font-size: 22px; padding: 12px 20px; width: 180px; text-align: center; border: 2px solid #4CAF50; border-radius: 8px;"" placeholder=""Enter number""></div></div>",0,,problem,PercentageFeeModel,3,Medium-High,85,85,true
,,,,,html-button-response,10,384308,0.0-10.0,18,1,2026-01-27 02:03:30,74232d8b0e4be341c6e5f2f2ebfe01be,121.160.109.238,"Mozilla/5.0 (Macintosh; Intel Mac OS X 10_15_7) AppleWebKit/537.36 (KHTML, like Gecko) Chrome/143.0.0.0 Safari/537.36",Macintosh,Chrome,143.0.0.0,OS X,10_15_7,null,"ko-KR,ko;q=0.9,en-US;q=0.8,en;q=0.7",790,"<h3>Problem 3 Complete</h3><p>Take a short break if needed.</p><p>Click ""Next"" when you are ready for the next problem.</p>",0,,,,,,,,
,,,,,html-button-response,11,429690,0.0-11.0,18,1,2026-01-27 02:03:30,74232d8b0e4be341c6e5f2f2ebfe01be,121.160.109.238,"Mozilla/5.0 (Macintosh; Intel Mac OS X 10_15_7) AppleWebKit/537.36 (KHTML, like Gecko) Chrome/143.0.0.0 Safari/537.36",Macintosh,Chrome,143.0.0.0,OS X,10_15_7,null,"ko-KR,ko;q=0.9,en-US;q=0.8,en;q=0.7",45382,"<div style=""display: flex; flex-direction: column; align-items: center;""><div style=""font-size: 18px; color: #666; margin-bottom: 15px;"">Problem 4 of 5</div><img src=""problem_4.png"" style=""max-width: 900px; border-radius: 10px; box-shadow: 0 4px 6px rgba(0, 0, 0, 0.3);""><div style=""margin-top: 25px; display: flex; align-items: center; gap: 15px;""><label style=""font-size: 18px;"">Return value:</label><input type=""number"" id=""answer-input-3"" style=""font-size: 22px; padding: 12px 20px; width: 180px; text-align: center; border: 2px solid #4CAF50; border-radius: 8px;"" placeholder=""Enter number""></div></div>",0,,problem,LockupContract,4,High,6000,6000,true
,,,,,html-button-response,12,430403,0.0-12.0,18,1,2026-01-27 02:03:30,74232d8b0e4be341c6e5f2f2ebfe01be,121.160.109.238,"Mozilla/5.0 (Macintosh; Intel Mac OS X 10_15_7) AppleWebKit/537.36 (KHTML, like Gecko) Chrome/143.0.0.0 Safari/537.36",Macintosh,Chrome,143.0.0.0,OS X,10_15_7,null,"ko-KR,ko;q=0.9,en-US;q=0.8,en;q=0.7",711,"<h3>Problem 4 Complete</h3><p>Take a short break if needed.</p><p>Click ""Next"" when you are ready for the next problem.</p>",0,,,,,,,,
,,,,,html-button-response,13,482864,0.0-13.0,18,1,2026-01-27 02:03:30,74232d8b0e4be341c6e5f2f2ebfe01be,121.160.109.238,"Mozilla/5.0 (Macintosh; Intel Mac OS X 10_15_7) AppleWebKit/537.36 (KHTML, like Gecko) Chrome/143.0.0.0 Safari/537.36",Macintosh,Chrome,143.0.0.0,OS X,10_15_7,null,"ko-KR,ko;q=0.9,en-US;q=0.8,en;q=0.7",52461,"<div style=""display: flex; flex-direction: column; align-items: center;""><div style=""font-size: 18px; color: #666; margin-bottom: 15px;"">Problem 5 of 5</div><img src=""problem_5.png"" style=""max-width: 900px; border-radius: 10px; box-shadow: 0 4px 6px rgba(0, 0, 0, 0.3);""><div style=""margin-top: 25px; display: flex; align-items: center; gap: 15px;""><label style=""font-size: 18px;"">Return value:</label><input type=""number"" id=""answer-input-4"" style=""font-size: 22px; padding: 12px 20px; width: 180px; text-align: center; border: 2px solid #4CAF50; border-radius: 8px;"" placeholder=""Enter number""></div></div>",0,,problem,Lock,5,High,6800,6800,true
,,,,,survey-multi-choice,14,486235,0.0-14.0,18,1,2026-01-27 02:03:30,74232d8b0e4be341c6e5f2f2ebfe01be,121.160.109.238,"Mozilla/5.0 (Macintosh; Intel Mac OS X 10_15_7) AppleWebKit/537.36 (KHTML, like Gecko) Chrome/143.0.0.0 Safari/537.36",Macintosh,Chrome,143.0.0.0,OS X,10_15_7,null,"ko-KR,ko;q=0.9,en-US;q=0.8,en;q=0.7",3369,,"{""tools_used"":""AI (e.g., ChatGPT, Claude, Copilot)""}",[0],,,,,,,
,,,,,html-button-response,15,487508,0.0-15.0,18,1,2026-01-27 02:03:30,74232d8b0e4be341c6e5f2f2ebfe01be,121.160.109.238,"Mozilla/5.0 (Macintosh; Intel Mac OS X 10_15_7) AppleWebKit/537.36 (KHTML, like Gecko) Chrome/143.0.0.0 Safari/537.36",Macintosh,Chrome,143.0.0.0,OS X,10_15_7,null,"ko-KR,ko;q=0.9,en-US;q=0.8,en;q=0.7",1270,<h1>Thank You!</h1><p>Your responses have been recorded.</p><p>Thank you for participating in this study.</p>,0,,,,,,,,
true,false,[],[],[],preload,0,161,0.0-0.0,17,1,2026-01-26 13:21:30,74232d8b0e4be341c6e5f2f2ebfe01be,222.107.27.135,"Mozilla/5.0 (Windows NT 10.0; Win64; x64) AppleWebKit/537.36 (KHTML, like Gecko) Chrome/144.0.0.0 Safari/537.36",WebKit,Chrome,144.0.0.0,Windows,10.0,null,"ko-KR,ko;q=0.9,en-US;q=0.8,en;q=0.7",,,,,,,,,,,
,,,,,html-button-response,1,5389,0.0-1.0,17,1,2026-01-26 13:21:30,74232d8b0e4be341c6e5f2f2ebfe01be,222.107.27.135,"Mozilla/5.0 (Windows NT 10.0; Win64; x64) AppleWebKit/537.36 (KHTML, like Gecko) Chrome/144.0.0.0 Safari/537.36",WebKit,Chrome,144.0.0.0,Windows,10.0,null,"ko-KR,ko;q=0.9,en-US;q=0.8,en;q=0.7",5227,"<h1>Program Comprehension Study</h1><div style=""text-align: left; max-width: 800px; margin: 0 auto; line-height: 1.8;""><p>Thank you for participating in this study.</p><p>In this experiment, you will be shown <strong>5 code snippets</strong> with input values. Your task is to <strong>calculate the return value</strong> of each function.</p><p><strong>Important:</strong></p><ul><li>You may use a calculator for arithmetic operations.</li><li>Take your time to understand the code before answering.</li><li>Your response time will be recorded.</li></ul><p>The study takes approximately <strong>15-20 minutes</strong>.</p><p>By clicking ""I Agree"", you consent to participate in this study.</p></div>",0,,,,,,,,
,,,,,survey-text,2,17847,0.0-2.0,17,1,2026-01-26 13:21:30,74232d8b0e4be341c6e5f2f2ebfe01be,222.107.27.135,"Mozilla/5.0 (Windows NT 10.0; Win64; x64) AppleWebKit/537.36 (KHTML, like Gecko) Chrome/144.0.0.0 Safari/537.36",WebKit,Chrome,144.0.0.0,Windows,10.0,null,"ko-KR,ko;q=0.9,en-US;q=0.8,en;q=0.7",12455,,"{""name"":""Chaeyeon Kim"",""email"":""kcy24@korea.ac.kr""}",,,,,,,,
,,,,,survey-multi-choice,3,51709,0.0-3.0,17,1,2026-01-26 13:21:30,74232d8b0e4be341c6e5f2f2ebfe01be,222.107.27.135,"Mozilla/5.0 (Windows NT 10.0; Win64; x64) AppleWebKit/537.36 (KHTML, like Gecko) Chrome/144.0.0.0 Safari/537.36",WebKit,Chrome,144.0.0.0,Windows,10.0,null,"ko-KR,ko;q=0.9,en-US;q=0.8,en;q=0.7",33861,,"{""programming_exp"":""More than 5 years"",""solidity_exp"":""None"",""role"":""Graduate Student""}","[0,1,2]",,,,,,,
,,,,,html-button-response,4,75468,0.0-4.0,17,1,2026-01-26 13:21:30,74232d8b0e4be341c6e5f2f2ebfe01be,222.107.27.135,"Mozilla/5.0 (Windows NT 10.0; Win64; x64) AppleWebKit/537.36 (KHTML, like Gecko) Chrome/144.0.0.0 Safari/537.36",WebKit,Chrome,144.0.0.0,Windows,10.0,null,"ko-KR,ko;q=0.9,en-US;q=0.8,en;q=0.7",23758,"<h2>Instructions</h2><div style=""text-align: left; max-width: 800px; margin: 0 auto; line-height: 1.8;""><p>You will now see 5 problems. For each problem:</p><ol><li>Read the code carefully</li><li>Note the input values provided</li><li>Calculate the return value of the function</li><li>Enter your answer in the text box below the code</li><li>Click ""Submit"" when ready</li></ol><p><strong>Note:</strong> Enter only the numeric value (e.g., 1234), not variable names or expressions.</p><p>Click ""Start"" when you are ready.</p></div>",0,,,,,,,,
,,,,,html-button-response,5,128801,0.0-5.0,17,1,2026-01-26 13:21:30,74232d8b0e4be341c6e5f2f2ebfe01be,222.107.27.135,"Mozilla/5.0 (Windows NT 10.0; Win64; x64) AppleWebKit/537.36 (KHTML, like Gecko) Chrome/144.0.0.0 Safari/537.36",WebKit,Chrome,144.0.0.0,Windows,10.0,null,"ko-KR,ko;q=0.9,en-US;q=0.8,en;q=0.7",53332,"<div style=""display: flex; flex-direction: column; align-items: center;""><div style=""font-size: 18px; color: #666; margin-bottom: 15px;"">Problem 1 of 5</div><img src=""problem_1.png"" style=""max-width: 900px; border-radius: 10px; box-shadow: 0 4px 6px rgba(0, 0, 0, 0.3);""><div style=""margin-top: 25px; display: flex; align-items: center; gap: 15px;""><label style=""font-size: 18px;"">Return value:</label><input type=""number"" id=""answer-input-0"" style=""font-size: 22px; padding: 12px 20px; width: 180px; text-align: center; border: 2px solid #4CAF50; border-radius: 8px;"" placeholder=""Enter number""></div></div>",0,,problem,GreenHouse,1,Low,7651,7651,true
,,,,,html-button-response,6,132279,0.0-6.0,17,1,2026-01-26 13:21:30,74232d8b0e4be341c6e5f2f2ebfe01be,222.107.27.135,"Mozilla/5.0 (Windows NT 10.0; Win64; x64) AppleWebKit/537.36 (KHTML, like Gecko) Chrome/144.0.0.0 Safari/537.36",WebKit,Chrome,144.0.0.0,Windows,10.0,null,"ko-KR,ko;q=0.9,en-US;q=0.8,en;q=0.7",3477,"<h3>Problem 1 Complete</h3><p>Take a short break if needed.</p><p>Click ""Next"" when you are ready for the next problem.</p>",0,,,,,,,,
,,,,,html-button-response,7,173690,0.0-7.0,17,1,2026-01-26 13:21:30,74232d8b0e4be341c6e5f2f2ebfe01be,222.107.27.135,"Mozilla/5.0 (Windows NT 10.0; Win64; x64) AppleWebKit/537.36 (KHTML, like Gecko) Chrome/144.0.0.0 Safari/537.36",WebKit,Chrome,144.0.0.0,Windows,10.0,null,"ko-KR,ko;q=0.9,en-US;q=0.8,en;q=0.7",41410,"<div style=""display: flex; flex-direction: column; align-items: center;""><div style=""font-size: 18px; color: #666; margin-bottom: 15px;"">Problem 2 of 5</div><img src=""problem_2.png"" style=""max-width: 900px; border-radius: 10px; box-shadow: 0 4px 6px rgba(0, 0, 0, 0.3);""><div style=""margin-top: 25px; display: flex; align-items: center; gap: 15px;""><label style=""font-size: 18px;"">Return value:</label><input type=""number"" id=""answer-input-1"" style=""font-size: 22px; padding: 12px 20px; width: 180px; text-align: center; border: 2px solid #4CAF50; border-radius: 8px;"" placeholder=""Enter number""></div></div>",0,,problem,HubPool,2,Medium,954,954,true
,,,,,html-button-response,8,174813,0.0-8.0,17,1,2026-01-26 13:21:30,74232d8b0e4be341c6e5f2f2ebfe01be,222.107.27.135,"Mozilla/5.0 (Windows NT 10.0; Win64; x64) AppleWebKit/537.36 (KHTML, like Gecko) Chrome/144.0.0.0 Safari/537.36",WebKit,Chrome,144.0.0.0,Windows,10.0,null,"ko-KR,ko;q=0.9,en-US;q=0.8,en;q=0.7",1122,"<h3>Problem 2 Complete</h3><p>Take a short break if needed.</p><p>Click ""Next"" when you are ready for the next problem.</p>",0,,,,,,,,
,,,,,html-button-response,9,217683,0.0-9.0,17,1,2026-01-26 13:21:30,74232d8b0e4be341c6e5f2f2ebfe01be,222.107.27.135,"Mozilla/5.0 (Windows NT 10.0; Win64; x64) AppleWebKit/537.36 (KHTML, like Gecko) Chrome/144.0.0.0 Safari/537.36",WebKit,Chrome,144.0.0.0,Windows,10.0,null,"ko-KR,ko;q=0.9,en-US;q=0.8,en;q=0.7",42869,"<div style=""display: flex; flex-direction: column; align-items: center;""><div style=""font-size: 18px; color: #666; margin-bottom: 15px;"">Problem 3 of 5</div><img src=""problem_3.png"" style=""max-width: 900px; border-radius: 10px; box-shadow: 0 4px 6px rgba(0, 0, 0, 0.3);""><div style=""margin-top: 25px; display: flex; align-items: center; gap: 15px;""><label style=""font-size: 18px;"">Return value:</label><input type=""number"" id=""answer-input-2"" style=""font-size: 22px; padding: 12px 20px; width: 180px; text-align: center; border: 2px solid #4CAF50; border-radius: 8px;"" placeholder=""Enter number""></div></div>",0,,problem,PercentageFeeModel,3,Medium-High,85,85,true
,,,,,html-button-response,10,218823,0.0-10.0,17,1,2026-01-26 13:21:30,74232d8b0e4be341c6e5f2f2ebfe01be,222.107.27.135,"Mozilla/5.0 (Windows NT 10.0; Win64; x64) AppleWebKit/537.36 (KHTML, like Gecko) Chrome/144.0.0.0 Safari/537.36",WebKit,Chrome,144.0.0.0,Windows,10.0,null,"ko-KR,ko;q=0.9,en-US;q=0.8,en;q=0.7",1139,"<h3>Problem 3 Complete</h3><p>Take a short break if needed.</p><p>Click ""Next"" when you are ready for the next problem.</p>",0,,,,,,,,
,,,,,html-button-response,11,271301,0.0-11.0,17,1,2026-01-26 13:21:30,74232d8b0e4be341c6e5f2f2ebfe01be,222.107.27.135,"Mozilla/5.0 (Windows NT 10.0; Win64; x64) AppleWebKit/537.36 (KHTML, like Gecko) Chrome/144.0.0.0 Safari/537.36",WebKit,Chrome,144.0.0.0,Windows,10.0,null,"ko-KR,ko;q=0.9,en-US;q=0.8,en;q=0.7",52477,"<div style=""display: flex; flex-direction: column; align-items: center;""><div style=""font-size: 18px; color: #666; margin-bottom: 15px;"">Problem 4 of 5</div><img src=""problem_4.png"" style=""max-width: 900px; border-radius: 10px; box-shadow: 0 4px 6px rgba(0, 0, 0, 0.3);""><div style=""margin-top: 25px; display: flex; align-items: center; gap: 15px;""><label style=""font-size: 18px;"">Return value:</label><input type=""number"" id=""answer-input-3"" style=""font-size: 22px; padding: 12px 20px; width: 180px; text-align: center; border: 2px solid #4CAF50; border-radius: 8px;"" placeholder=""Enter number""></div></div>",0,,problem,LockupContract,4,High,6000,24000,false
,,,,,html-button-response,12,272763,0.0-12.0,17,1,2026-01-26 13:21:30,74232d8b0e4be341c6e5f2f2ebfe01be,222.107.27.135,"Mozilla/5.0 (Windows NT 10.0; Win64; x64) AppleWebKit/537.36 (KHTML, like Gecko) Chrome/144.0.0.0 Safari/537.36",WebKit,Chrome,144.0.0.0,Windows,10.0,null,"ko-KR,ko;q=0.9,en-US;q=0.8,en;q=0.7",1461,"<h3>Problem 4 Complete</h3><p>Take a short break if needed.</p><p>Click ""Next"" when you are ready for the next problem.</p>",0,,,,,,,,
,,,,,html-button-response,13,365224,0.0-13.0,17,1,2026-01-26 13:21:30,74232d8b0e4be341c6e5f2f2ebfe01be,222.107.27.135,"Mozilla/5.0 (Windows NT 10.0; Win64; x64) AppleWebKit/537.36 (KHTML, like Gecko) Chrome/144.0.0.0 Safari/537.36",WebKit,Chrome,144.0.0.0,Windows,10.0,null,"ko-KR,ko;q=0.9,en-US;q=0.8,en;q=0.7",92460,"<div style=""display: flex; flex-direction: column; align-items: center;""><div style=""font-size: 18px; color: #666; margin-bottom: 15px;"">Problem 5 of 5</div><img src=""problem_5.png"" style=""max-width: 900px; border-radius: 10px; box-shadow: 0 4px 6px rgba(0, 0, 0, 0.3);""><div style=""margin-top: 25px; display: flex; align-items: center; gap: 15px;""><label style=""font-size: 18px;"">Return value:</label><input type=""number"" id=""answer-input-4"" style=""font-size: 22px; padding: 12px 20px; width: 180px; text-align: center; border: 2px solid #4CAF50; border-radius: 8px;"" placeholder=""Enter number""></div></div>",0,,problem,Lock,5,High,6800,6800,true
,,,,,survey-multi-choice,14,377007,0.0-14.0,17,1,2026-01-26 13:21:30,74232d8b0e4be341c6e5f2f2ebfe01be,222.107.27.135,"Mozilla/5.0 (Windows NT 10.0; Win64; x64) AppleWebKit/537.36 (KHTML, like Gecko) Chrome/144.0.0.0 Safari/537.36",WebKit,Chrome,144.0.0.0,Windows,10.0,null,"ko-KR,ko;q=0.9,en-US;q=0.8,en;q=0.7",11782,,"{""tools_used"":""AI (e.g., ChatGPT, Claude, Copilot)""}",[0],,,,,,,
,,,,,html-button-response,15,378116,0.0-15.0,17,1,2026-01-26 13:21:30,74232d8b0e4be341c6e5f2f2ebfe01be,222.107.27.135,"Mozilla/5.0 (Windows NT 10.0; Win64; x64) AppleWebKit/537.36 (KHTML, like Gecko) Chrome/144.0.0.0 Safari/537.36",WebKit,Chrome,144.0.0.0,Windows,10.0,null,"ko-KR,ko;q=0.9,en-US;q=0.8,en;q=0.7",1109,<h1>Thank You!</h1><p>Your responses have been recorded.</p><p>Thank you for participating in this study.</p>,0,,,,,,,,
true,false,[],[],[],preload,0,424,0.0-0.0,19,1,2026-01-27 03:22:21,74232d8b0e4be341c6e5f2f2ebfe01be,116.46.68.199,"Mozilla/5.0 (Macintosh; Intel Mac OS X 10_15_7) AppleWebKit/605.1.15 (KHTML, like Gecko) Version/18.6 Safari/605.1.15",Macintosh,Safari,18.6,OS X,10_15_7,null,"ko-KR,ko;q=0.9",,,,,,,,,,,
,,,,,html-button-response,1,6352,0.0-1.0,19,1,2026-01-27 03:22:21,74232d8b0e4be341c6e5f2f2ebfe01be,116.46.68.199,"Mozilla/5.0 (Macintosh; Intel Mac OS X 10_15_7) AppleWebKit/605.1.15 (KHTML, like Gecko) Version/18.6 Safari/605.1.15",Macintosh,Safari,18.6,OS X,10_15_7,null,"ko-KR,ko;q=0.9",5927,"<h1>Program Comprehension Study</h1><div style=""text-align: left; max-width: 800px; margin: 0 auto; line-height: 1.8;""><p>Thank you for participating in this study.</p><p>In this experiment, you will be shown <strong>5 code snippets</strong> with input values. Your task is to <strong>calculate the return value</strong> of each function.</p><p><strong>Important:</strong></p><ul><li>You may use a calculator for arithmetic operations.</li><li>Take your time to understand the code before answering.</li><li>Your response time will be recorded.</li></ul><p>The study takes approximately <strong>15-20 minutes</strong>.</p><p>By clicking ""I Agree"", you consent to participate in this study.</p></div>",0,,,,,,,,
,,,,,survey-text,2,21893,0.0-2.0,19,1,2026-01-27 03:22:21,74232d8b0e4be341c6e5f2f2ebfe01be,116.46.68.199,"Mozilla/5.0 (Macintosh; Intel Mac OS X 10_15_7) AppleWebKit/605.1.15 (KHTML, like Gecko) Version/18.6 Safari/605.1.15",Macintosh,Safari,18.6,OS X,10_15_7,null,"ko-KR,ko;q=0.9",15527,,"{""name"":""Yunyoung Lee"",""email"":""kembel99@naver.com""}",,,,,,,,
,,,,,survey-multi-choice,3,38790,0.0-3.0,19,1,2026-01-27 03:22:21,74232d8b0e4be341c6e5f2f2ebfe01be,116.46.68.199,"Mozilla/5.0 (Macintosh; Intel Mac OS X 10_15_7) AppleWebKit/605.1.15 (KHTML, like Gecko) Version/18.6 Safari/605.1.15",Macintosh,Safari,18.6,OS X,10_15_7,null,"ko-KR,ko;q=0.9",16896,,"{""programming_exp"":""1-2 years"",""solidity_exp"":""Intermediate (written some contracts)"",""role"":""Graduate Student""}","[0,1,2]",,,,,,,
,,,,,html-button-response,4,86421,0.0-4.0,19,1,2026-01-27 03:22:21,74232d8b0e4be341c6e5f2f2ebfe01be,116.46.68.199,"Mozilla/5.0 (Macintosh; Intel Mac OS X 10_15_7) AppleWebKit/605.1.15 (KHTML, like Gecko) Version/18.6 Safari/605.1.15",Macintosh,Safari,18.6,OS X,10_15_7,null,"ko-KR,ko;q=0.9",47629,"<h2>Instructions</h2><div style=""text-align: left; max-width: 800px; margin: 0 auto; line-height: 1.8;""><p>You will now see 5 problems. For each problem:</p><ol><li>Read the code carefully</li><li>Note the input values provided</li><li>Calculate the return value of the function</li><li>Enter your answer in the text box below the code</li><li>Click ""Submit"" when ready</li></ol><p><strong>Note:</strong> Enter only the numeric value (e.g., 1234), not variable names or expressions.</p><p>Click ""Start"" when you are ready.</p></div>",0,,,,,,,,
,,,,,html-button-response,5,328825,0.0-5.0,19,1,2026-01-27 03:22:21,74232d8b0e4be341c6e5f2f2ebfe01be,116.46.68.199,"Mozilla/5.0 (Macintosh; Intel Mac OS X 10_15_7) AppleWebKit/605.1.15 (KHTML, like Gecko) Version/18.6 Safari/605.1.15",Macintosh,Safari,18.6,OS X,10_15_7,null,"ko-KR,ko;q=0.9",242407,"<div style=""display: flex; flex-direction: column; align-items: center;""><div style=""font-size: 18px; color: #666; margin-bottom: 15px;"">Problem 1 of 5</div><img src=""problem_1.png"" style=""max-width: 900px; border-radius: 10px; box-shadow: 0 4px 6px rgba(0, 0, 0, 0.3);""><div style=""margin-top: 25px; display: flex; align-items: center; gap: 15px;""><label style=""font-size: 18px;"">Return value:</label><input type=""number"" id=""answer-input-0"" style=""font-size: 22px; padding: 12px 20px; width: 180px; text-align: center; border: 2px solid #4CAF50; border-radius: 8px;"" placeholder=""Enter number""></div></div>",0,,problem,GreenHouse,1,Low,7651,7651,true
,,,,,html-button-response,6,330610,0.0-6.0,19,1,2026-01-27 03:22:21,74232d8b0e4be341c6e5f2f2ebfe01be,116.46.68.199,"Mozilla/5.0 (Macintosh; Intel Mac OS X 10_15_7) AppleWebKit/605.1.15 (KHTML, like Gecko) Version/18.6 Safari/605.1.15",Macintosh,Safari,18.6,OS X,10_15_7,null,"ko-KR,ko;q=0.9",1784,"<h3>Problem 1 Complete</h3><p>Take a short break if needed.</p><p>Click ""Next"" when you are ready for the next problem.</p>",0,,,,,,,,
,,,,,html-button-response,7,557590,0.0-7.0,19,1,2026-01-27 03:22:21,74232d8b0e4be341c6e5f2f2ebfe01be,116.46.68.199,"Mozilla/5.0 (Macintosh; Intel Mac OS X 10_15_7) AppleWebKit/605.1.15 (KHTML, like Gecko) Version/18.6 Safari/605.1.15",Macintosh,Safari,18.6,OS X,10_15_7,null,"ko-KR,ko;q=0.9",226976,"<div style=""display: flex; flex-direction: column; align-items: center;""><div style=""font-size: 18px; color: #666; margin-bottom: 15px;"">Problem 2 of 5</div><img src=""problem_2.png"" style=""max-width: 900px; border-radius: 10px; box-shadow: 0 4px 6px rgba(0, 0, 0, 0.3);""><div style=""margin-top: 25px; display: flex; align-items: center; gap: 15px;""><label style=""font-size: 18px;"">Return value:</label><input type=""number"" id=""answer-input-1"" style=""font-size: 22px; padding: 12px 20px; width: 180px; text-align: center; border: 2px solid #4CAF50; border-radius: 8px;"" placeholder=""Enter number""></div></div>",0,,problem,HubPool,2,Medium,954,854,false
,,,,,html-button-response,8,559539,0.0-8.0,19,1,2026-01-27 03:22:21,74232d8b0e4be341c6e5f2f2ebfe01be,116.46.68.199,"Mozilla/5.0 (Macintosh; Intel Mac OS X 10_15_7) AppleWebKit/605.1.15 (KHTML, like Gecko) Version/18.6 Safari/605.1.15",Macintosh,Safari,18.6,OS X,10_15_7,null,"ko-KR,ko;q=0.9",1948,"<h3>Problem 2 Complete</h3><p>Take a short break if needed.</p><p>Click ""Next"" when you are ready for the next problem.</p>",0,,,,,,,,
,,,,,html-button-response,9,642380,0.0-9.0,19,1,2026-01-27 03:22:21,74232d8b0e4be341c6e5f2f2ebfe01be,116.46.68.199,"Mozilla/5.0 (Macintosh; Intel Mac OS X 10_15_7) AppleWebKit/605.1.15 (KHTML, like Gecko) Version/18.6 Safari/605.1.15",Macintosh,Safari,18.6,OS X,10_15_7,null,"ko-KR,ko;q=0.9",82839,"<div style=""display: flex; flex-direction: column; align-items: center;""><div style=""font-size: 18px; color: #666; margin-bottom: 15px;"">Problem 3 of 5</div><img src=""problem_3.png"" style=""max-width: 900px; border-radius: 10px; box-shadow: 0 4px 6px rgba(0, 0, 0, 0.3);""><div style=""margin-top: 25px; display: flex; align-items: center; gap: 15px;""><label style=""font-size: 18px;"">Return value:</label><input type=""number"" id=""answer-input-2"" style=""font-size: 22px; padding: 12px 20px; width: 180px; text-align: center; border: 2px solid #4CAF50; border-radius: 8px;"" placeholder=""Enter number""></div></div>",0,,problem,PercentageFeeModel,3,Medium-High,85,85,true
,,,,,html-button-response,10,644568,0.0-10.0,19,1,2026-01-27 03:22:21,74232d8b0e4be341c6e5f2f2ebfe01be,116.46.68.199,"Mozilla/5.0 (Macintosh; Intel Mac OS X 10_15_7) AppleWebKit/605.1.15 (KHTML, like Gecko) Version/18.6 Safari/605.1.15",Macintosh,Safari,18.6,OS X,10_15_7,null,"ko-KR,ko;q=0.9",2187,"<h3>Problem 3 Complete</h3><p>Take a short break if needed.</p><p>Click ""Next"" when you are ready for the next problem.</p>",0,,,,,,,,
,,,,,html-button-response,11,848721,0.0-11.0,19,1,2026-01-27 03:22:21,74232d8b0e4be341c6e5f2f2ebfe01be,116.46.68.199,"Mozilla/5.0 (Macintosh; Intel Mac OS X 10_15_7) AppleWebKit/605.1.15 (KHTML, like Gecko) Version/18.6 Safari/605.1.15",Macintosh,Safari,18.6,OS X,10_15_7,null,"ko-KR,ko;q=0.9",204149,"<div style=""display: flex; flex-direction: column; align-items: center;""><div style=""font-size: 18px; color: #666; margin-bottom: 15px;"">Problem 4 of 5</div><img src=""problem_4.png"" style=""max-width: 900px; border-radius: 10px; box-shadow: 0 4px 6px rgba(0, 0, 0, 0.3);""><div style=""margin-top: 25px; display: flex; align-items: center; gap: 15px;""><label style=""font-size: 18px;"">Return value:</label><input type=""number"" id=""answer-input-3"" style=""font-size: 22px; padding: 12px 20px; width: 180px; text-align: center; border: 2px solid #4CAF50; border-radius: 8px;"" placeholder=""Enter number""></div></div>",0,,problem,LockupContract,4,High,6000,6000,true
,,,,,html-button-response,12,851954,0.0-12.0,19,1,2026-01-27 03:22:21,74232d8b0e4be341c6e5f2f2ebfe01be,116.46.68.199,"Mozilla/5.0 (Macintosh; Intel Mac OS X 10_15_7) AppleWebKit/605.1.15 (KHTML, like Gecko) Version/18.6 Safari/605.1.15",Macintosh,Safari,18.6,OS X,10_15_7,null,"ko-KR,ko;q=0.9",3233,"<h3>Problem 4 Complete</h3><p>Take a short break if needed.</p><p>Click ""Next"" when you are ready for the next problem.</p>",0,,,,,,,,
,,,,,html-button-response,13,1146931,0.0-13.0,19,1,2026-01-27 03:22:21,74232d8b0e4be341c6e5f2f2ebfe01be,116.46.68.199,"Mozilla/5.0 (Macintosh; Intel Mac OS X 10_15_7) AppleWebKit/605.1.15 (KHTML, like Gecko) Version/18.6 Safari/605.1.15",Macintosh,Safari,18.6,OS X,10_15_7,null,"ko-KR,ko;q=0.9",294969,"<div style=""display: flex; flex-direction: column; align-items: center;""><div style=""font-size: 18px; color: #666; margin-bottom: 15px;"">Problem 5 of 5</div><img src=""problem_5.png"" style=""max-width: 900px; border-radius: 10px; box-shadow: 0 4px 6px rgba(0, 0, 0, 0.3);""><div style=""margin-top: 25px; display: flex; align-items: center; gap: 15px;""><label style=""font-size: 18px;"">Return value:</label><input type=""number"" id=""answer-input-4"" style=""font-size: 22px; padding: 12px 20px; width: 180px; text-align: center; border: 2px solid #4CAF50; border-radius: 8px;"" placeholder=""Enter number""></div></div>",0,,problem,Lock,5,High,6800,6300,false
,,,,,survey-multi-choice,14,1166838,0.0-14.0,19,1,2026-01-27 03:22:21,74232d8b0e4be341c6e5f2f2ebfe01be,116.46.68.199,"Mozilla/5.0 (Macintosh; Intel Mac OS X 10_15_7) AppleWebKit/605.1.15 (KHTML, like Gecko) Version/18.6 Safari/605.1.15",Macintosh,Safari,18.6,OS X,10_15_7,null,"ko-KR,ko;q=0.9",19905,,"{""tools_used"":""Calculator""}",[0],,,,,,,
,,,,,html-button-response,15,1167983,0.0-15.0,19,1,2026-01-27 03:22:21,74232d8b0e4be341c6e5f2f2ebfe01be,116.46.68.199,"Mozilla/5.0 (Macintosh; Intel Mac OS X 10_15_7) AppleWebKit/605.1.15 (KHTML, like Gecko) Version/18.6 Safari/605.1.15",Macintosh,Safari,18.6,OS X,10_15_7,null,"ko-KR,ko;q=0.9",1144,<h1>Thank You!</h1><p>Your responses have been recorded.</p><p>Thank you for participating in this study.</p>,0,,,,,,,,
true,false,[],[],[],preload,0,403,0.0-0.0,2,1,2026-01-26 05:58:07,be186a8311b68188ac0553e60d64e3d3,203.252.138.21,"Mozilla/5.0 (Windows NT 10.0; Win64; x64) AppleWebKit/537.36 (KHTML, like Gecko) Chrome/144.0.0.0 Safari/537.36",WebKit,Chrome,144.0.0.0,Windows,10.0,null,"ko-KR,ko;q=0.9,en-US;q=0.8,en;q=0.7",,,,,,,,,,,
,,,,,html-button-response,1,1725,0.0-1.0,2,1,2026-01-26 05:58:07,be186a8311b68188ac0553e60d64e3d3,203.252.138.21,"Mozilla/5.0 (Windows NT 10.0; Win64; x64) AppleWebKit/537.36 (KHTML, like Gecko) Chrome/144.0.0.0 Safari/537.36",WebKit,Chrome,144.0.0.0,Windows,10.0,null,"ko-KR,ko;q=0.9,en-US;q=0.8,en;q=0.7",1320,"<h1>Program Comprehension Study</h1><div style=""text-align: left; max-width: 800px; margin: 0 auto; line-height: 1.8;""><p>Thank you for participating in this study.</p><p>In this experiment, you will be shown <strong>5 code snippets</strong> with input values. Your task is to <strong>calculate the return value</strong> of each function.</p><p><strong>Important:</strong></p><ul><li>You may use a calculator for arithmetic operations.</li><li>Take your time to understand the code before answering.</li><li>Your response time will be recorded.</li></ul><p>The study takes approximately <strong>15-20 minutes</strong>.</p><p>By clicking ""I Agree"", you consent to participate in this study.</p></div>",0,,,,,,,,
,,,,,survey-multi-choice,2,33054,0.0-2.0,2,1,2026-01-26 05:58:07,be186a8311b68188ac0553e60d64e3d3,203.252.138.21,"Mozilla/5.0 (Windows NT 10.0; Win64; x64) AppleWebKit/537.36 (KHTML, like Gecko) Chrome/144.0.0.0 Safari/537.36",WebKit,Chrome,144.0.0.0,Windows,10.0,null,"ko-KR,ko;q=0.9,en-US;q=0.8,en;q=0.7",31328,,"{""programming_exp"":""More than 5 years"",""solidity_exp"":""Intermediate (written some contracts)"",""role"":""Other""}","[0,1,2]",,,,,,,
,,,,,html-button-response,3,34943,0.0-3.0,2,1,2026-01-26 05:58:07,be186a8311b68188ac0553e60d64e3d3,203.252.138.21,"Mozilla/5.0 (Windows NT 10.0; Win64; x64) AppleWebKit/537.36 (KHTML, like Gecko) Chrome/144.0.0.0 Safari/537.36",WebKit,Chrome,144.0.0.0,Windows,10.0,null,"ko-KR,ko;q=0.9,en-US;q=0.8,en;q=0.7",1889,"<h2>Instructions</h2><div style=""text-align: left; max-width: 800px; margin: 0 auto; line-height: 1.8;""><p>You will now see 5 problems. For each problem:</p><ol><li>Read the code carefully</li><li>Note the input values provided</li><li>Calculate the return value of the function</li><li>Enter your answer in the text box below the code</li><li>Click ""Submit"" when ready</li></ol><p><strong>Note:</strong> Enter only the numeric value (e.g., 1234), not variable names or expressions.</p><p>Click ""Start"" when you are ready.</p></div>",0,,,,,,,,
,,,,,html-button-response,4,101320,0.0-4.0,2,1,2026-01-26 05:58:07,be186a8311b68188ac0553e60d64e3d3,203.252.138.21,"Mozilla/5.0 (Windows NT 10.0; Win64; x64) AppleWebKit/537.36 (KHTML, like Gecko) Chrome/144.0.0.0 Safari/537.36",WebKit,Chrome,144.0.0.0,Windows,10.0,null,"ko-KR,ko;q=0.9,en-US;q=0.8,en;q=0.7",66375,"<div style=""display: flex; flex-direction: column; align-items: center;""><div style=""font-size: 18px; color: #666; margin-bottom: 15px;"">Problem 1 of 5</div><img src=""problem_1.png"" style=""max-width: 900px; border-radius: 10px; box-shadow: 0 4px 6px rgba(0, 0, 0, 0.3);""><div style=""margin-top: 25px; display: flex; align-items: center; gap: 15px;""><label style=""font-size: 18px;"">Return value:</label><input type=""number"" id=""answer-input-0"" style=""font-size: 22px; padding: 12px 20px; width: 180px; text-align: center; border: 2px solid #4CAF50; border-radius: 8px;"" placeholder=""Enter number""></div></div>",0,,problem,GreenHouse,1,Low,7651,7651,true
,,,,,html-button-response,5,106721,0.0-5.0,2,1,2026-01-26 05:58:07,be186a8311b68188ac0553e60d64e3d3,203.252.138.21,"Mozilla/5.0 (Windows NT 10.0; Win64; x64) AppleWebKit/537.36 (KHTML, like Gecko) Chrome/144.0.0.0 Safari/537.36",WebKit,Chrome,144.0.0.0,Windows,10.0,null,"ko-KR,ko;q=0.9,en-US;q=0.8,en;q=0.7",5400,"<h3>Problem 1 Complete</h3><p>Take a short break if needed.</p><p>Click ""Next"" when you are ready for the next problem.</p>",0,,,,,,,,
,,,,,html-button-response,6,143608,0.0-6.0,2,1,2026-01-26 05:58:07,be186a8311b68188ac0553e60d64e3d3,203.252.138.21,"Mozilla/5.0 (Windows NT 10.0; Win64; x64) AppleWebKit/537.36 (KHTML, like Gecko) Chrome/144.0.0.0 Safari/537.36",WebKit,Chrome,144.0.0.0,Windows,10.0,null,"ko-KR,ko;q=0.9,en-US;q=0.8,en;q=0.7",36885,"<div style=""display: flex; flex-direction: column; align-items: center;""><div style=""font-size: 18px; color: #666; margin-bottom: 15px;"">Problem 2 of 5</div><img src=""problem_2.png"" style=""max-width: 900px; border-radius: 10px; box-shadow: 0 4px 6px rgba(0, 0, 0, 0.3);""><div style=""margin-top: 25px; display: flex; align-items: center; gap: 15px;""><label style=""font-size: 18px;"">Return value:</label><input type=""number"" id=""answer-input-1"" style=""font-size: 22px; padding: 12px 20px; width: 180px; text-align: center; border: 2px solid #4CAF50; border-radius: 8px;"" placeholder=""Enter number""></div></div>",0,,problem,HubPool,2,Medium,954,954,true
,,,,,html-button-response,7,144658,0.0-7.0,2,1,2026-01-26 05:58:07,be186a8311b68188ac0553e60d64e3d3,203.252.138.21,"Mozilla/5.0 (Windows NT 10.0; Win64; x64) AppleWebKit/537.36 (KHTML, like Gecko) Chrome/144.0.0.0 Safari/537.36",WebKit,Chrome,144.0.0.0,Windows,10.0,null,"ko-KR,ko;q=0.9,en-US;q=0.8,en;q=0.7",1048,"<h3>Problem 2 Complete</h3><p>Take a short break if needed.</p><p>Click ""Next"" when you are ready for the next problem.</p>",0,,,,,,,,
,,,,,html-button-response,8,172498,0.0-8.0,2,1,2026-01-26 05:58:07,be186a8311b68188ac0553e60d64e3d3,203.252.138.21,"Mozilla/5.0 (Windows NT 10.0; Win64; x64) AppleWebKit/537.36 (KHTML, like Gecko) Chrome/144.0.0.0 Safari/537.36",WebKit,Chrome,144.0.0.0,Windows,10.0,null,"ko-KR,ko;q=0.9,en-US;q=0.8,en;q=0.7",27840,"<div style=""display: flex; flex-direction: column; align-items: center;""><div style=""font-size: 18px; color: #666; margin-bottom: 15px;"">Problem 3 of 5</div><img src=""problem_3.png"" style=""max-width: 900px; border-radius: 10px; box-shadow: 0 4px 6px rgba(0, 0, 0, 0.3);""><div style=""margin-top: 25px; display: flex; align-items: center; gap: 15px;""><label style=""font-size: 18px;"">Return value:</label><input type=""number"" id=""answer-input-2"" style=""font-size: 22px; padding: 12px 20px; width: 180px; text-align: center; border: 2px solid #4CAF50; border-radius: 8px;"" placeholder=""Enter number""></div></div>",0,,problem,PercentageFeeModel,3,Medium-High,85,85,true
,,,,,html-button-response,9,173729,0.0-9.0,2,1,2026-01-26 05:58:07,be186a8311b68188ac0553e60d64e3d3,203.252.138.21,"Mozilla/5.0 (Windows NT 10.0; Win64; x64) AppleWebKit/537.36 (KHTML, like Gecko) Chrome/144.0.0.0 Safari/537.36",WebKit,Chrome,144.0.0.0,Windows,10.0,null,"ko-KR,ko;q=0.9,en-US;q=0.8,en;q=0.7",1230,"<h3>Problem 3 Complete</h3><p>Take a short break if needed.</p><p>Click ""Next"" when you are ready for the next problem.</p>",0,,,,,,,,
,,,,,html-button-response,10,204256,0.0-10.0,2,1,2026-01-26 05:58:07,be186a8311b68188ac0553e60d64e3d3,203.252.138.21,"Mozilla/5.0 (Windows NT 10.0; Win64; x64) AppleWebKit/537.36 (KHTML, like Gecko) Chrome/144.0.0.0 Safari/537.36",WebKit,Chrome,144.0.0.0,Windows,10.0,null,"ko-KR,ko;q=0.9,en-US;q=0.8,en;q=0.7",30526,"<div style=""display: flex; flex-direction: column; align-items: center;""><div style=""font-size: 18px; color: #666; margin-bottom: 15px;"">Problem 4 of 5</div><img src=""problem_4.png"" style=""max-width: 900px; border-radius: 10px; box-shadow: 0 4px 6px rgba(0, 0, 0, 0.3);""><div style=""margin-top: 25px; display: flex; align-items: center; gap: 15px;""><label style=""font-size: 18px;"">Return value:</label><input type=""number"" id=""answer-input-3"" style=""font-size: 22px; padding: 12px 20px; width: 180px; text-align: center; border: 2px solid #4CAF50; border-radius: 8px;"" placeholder=""Enter number""></div></div>",0,,problem,LockupContract,4,High,6000,6000,true
,,,,,html-button-response,11,205314,0.0-11.0,2,1,2026-01-26 05:58:07,be186a8311b68188ac0553e60d64e3d3,203.252.138.21,"Mozilla/5.0 (Windows NT 10.0; Win64; x64) AppleWebKit/537.36 (KHTML, like Gecko) Chrome/144.0.0.0 Safari/537.36",WebKit,Chrome,144.0.0.0,Windows,10.0,null,"ko-KR,ko;q=0.9,en-US;q=0.8,en;q=0.7",1056,"<h3>Problem 4 Complete</h3><p>Take a short break if needed.</p><p>Click ""Next"" when you are ready for the next problem.</p>",0,,,,,,,,
,,,,,html-button-response,12,242116,0.0-12.0,2,1,2026-01-26 05:58:07,be186a8311b68188ac0553e60d64e3d3,203.252.138.21,"Mozilla/5.0 (Windows NT 10.0; Win64; x64) AppleWebKit/537.36 (KHTML, like Gecko) Chrome/144.0.0.0 Safari/537.36",WebKit,Chrome,144.0.0.0,Windows,10.0,null,"ko-KR,ko;q=0.9,en-US;q=0.8,en;q=0.7",36801,"<div style=""display: flex; flex-direction: column; align-items: center;""><div style=""font-size: 18px; color: #666; margin-bottom: 15px;"">Problem 5 of 5</div><img src=""problem_5.png"" style=""max-width: 900px; border-radius: 10px; box-shadow: 0 4px 6px rgba(0, 0, 0, 0.3);""><div style=""margin-top: 25px; display: flex; align-items: center; gap: 15px;""><label style=""font-size: 18px;"">Return value:</label><input type=""number"" id=""answer-input-4"" style=""font-size: 22px; padding: 12px 20px; width: 180px; text-align: center; border: 2px solid #4CAF50; border-radius: 8px;"" placeholder=""Enter number""></div></div>",0,,problem,Lock,5,High,6800,6800,true
,,,,,survey-multi-choice,13,247639,0.0-13.0,2,1,2026-01-26 05:58:07,be186a8311b68188ac0553e60d64e3d3,203.252.138.21,"Mozilla/5.0 (Windows NT 10.0; Win64; x64) AppleWebKit/537.36 (KHTML, like Gecko) Chrome/144.0.0.0 Safari/537.36",WebKit,Chrome,144.0.0.0,Windows,10.0,null,"ko-KR,ko;q=0.9,en-US;q=0.8,en;q=0.7",5522,,"{""tools_used"":""AI (e.g., ChatGPT, Claude, Copilot)""}",[0],,,,,,,
,,,,,html-button-response,14,253983,0.0-14.0,2,1,2026-01-26 05:58:07,be186a8311b68188ac0553e60d64e3d3,203.252.138.21,"Mozilla/5.0 (Windows NT 10.0; Win64; x64) AppleWebKit/537.36 (KHTML, like Gecko) Chrome/144.0.0.0 Safari/537.36",WebKit,Chrome,144.0.0.0,Windows,10.0,null,"ko-KR,ko;q=0.9,en-US;q=0.8,en;q=0.7",6343,<h1>Thank You!</h1><p>Your responses have been recorded.</p><p>Thank you for participating in this study.</p>,0,,,,,,,,
true,false,[],[],[],preload,0,538,0.0-0.0,23,1,2026-01-27 04:35:05,74232d8b0e4be341c6e5f2f2ebfe01be,124.122.124.111,"Mozilla/5.0 (Macintosh; Intel Mac OS X 10_15_7) AppleWebKit/537.36 (KHTML, like Gecko) Chrome/144.0.0.0 Safari/537.36",Macintosh,Chrome,144.0.0.0,OS X,10_15_7,null,"en-US,en;q=0.9,ko-KR;q=0.8,ko;q=0.7",,,,,,,,,,,
,,,,,html-button-response,1,1857,0.0-1.0,23,1,2026-01-27 04:35:05,74232d8b0e4be341c6e5f2f2ebfe01be,124.122.124.111,"Mozilla/5.0 (Macintosh; Intel Mac OS X 10_15_7) AppleWebKit/537.36 (KHTML, like Gecko) Chrome/144.0.0.0 Safari/537.36",Macintosh,Chrome,144.0.0.0,OS X,10_15_7,null,"en-US,en;q=0.9,ko-KR;q=0.8,ko;q=0.7",1318,"<h1>Program Comprehension Study</h1><div style=""text-align: left; max-width: 800px; margin: 0 auto; line-height: 1.8;""><p>Thank you for participating in this study.</p><p>In this experiment, you will be shown <strong>5 code snippets</strong> with input values. Your task is to <strong>calculate the return value</strong> of each function.</p><p><strong>Important:</strong></p><ul><li>You may use a calculator for arithmetic operations.</li><li>Take your time to understand the code before answering.</li><li>Your response time will be recorded.</li></ul><p>The study takes approximately <strong>15-20 minutes</strong>.</p><p>By clicking ""I Agree"", you consent to participate in this study.</p></div>",0,,,,,,,,
,,,,,survey-text,2,13451,0.0-2.0,23,1,2026-01-27 04:35:05,74232d8b0e4be341c6e5f2f2ebfe01be,124.122.124.111,"Mozilla/5.0 (Macintosh; Intel Mac OS X 10_15_7) AppleWebKit/537.36 (KHTML, like Gecko) Chrome/144.0.0.0 Safari/537.36",Macintosh,Chrome,144.0.0.0,OS X,10_15_7,null,"en-US,en;q=0.9,ko-KR;q=0.8,ko;q=0.7",11590,,"{""name"":""YongjunKim"",""email"":""metachain@korea.ac.kr""}",,,,,,,,
,,,,,survey-multi-choice,3,29566,0.0-3.0,23,1,2026-01-27 04:35:05,74232d8b0e4be341c6e5f2f2ebfe01be,124.122.124.111,"Mozilla/5.0 (Macintosh; Intel Mac OS X 10_15_7) AppleWebKit/537.36 (KHTML, like Gecko) Chrome/144.0.0.0 Safari/537.36",Macintosh,Chrome,144.0.0.0,OS X,10_15_7,null,"en-US,en;q=0.9,ko-KR;q=0.8,ko;q=0.7",16114,,"{""programming_exp"":""More than 5 years"",""solidity_exp"":""Advanced (deployed contracts)"",""role"":""Graduate Student""}","[0,1,2]",,,,,,,
,,,,,html-button-response,4,45967,0.0-4.0,23,1,2026-01-27 04:35:05,74232d8b0e4be341c6e5f2f2ebfe01be,124.122.124.111,"Mozilla/5.0 (Macintosh; Intel Mac OS X 10_15_7) AppleWebKit/537.36 (KHTML, like Gecko) Chrome/144.0.0.0 Safari/537.36",Macintosh,Chrome,144.0.0.0,OS X,10_15_7,null,"en-US,en;q=0.9,ko-KR;q=0.8,ko;q=0.7",16399,"<h2>Instructions</h2><div style=""text-align: left; max-width: 800px; margin: 0 auto; line-height: 1.8;""><p>You will now see 5 problems. For each problem:</p><ol><li>Read the code carefully</li><li>Note the input values provided</li><li>Calculate the return value of the function</li><li>Enter your answer in the text box below the code</li><li>Click ""Submit"" when ready</li></ol><p><strong>Note:</strong> Enter only the numeric value (e.g., 1234), not variable names or expressions.</p><p>Click ""Start"" when you are ready.</p></div>",0,,,,,,,,
,,,,,html-button-response,5,266317,0.0-5.0,23,1,2026-01-27 04:35:05,74232d8b0e4be341c6e5f2f2ebfe01be,124.122.124.111,"Mozilla/5.0 (Macintosh; Intel Mac OS X 10_15_7) AppleWebKit/537.36 (KHTML, like Gecko) Chrome/144.0.0.0 Safari/537.36",Macintosh,Chrome,144.0.0.0,OS X,10_15_7,null,"en-US,en;q=0.9,ko-KR;q=0.8,ko;q=0.7",220350,"<div style=""display: flex; flex-direction: column; align-items: center;""><div style=""font-size: 18px; color: #666; margin-bottom: 15px;"">Problem 1 of 5</div><img src=""problem_1.png"" style=""max-width: 900px; border-radius: 10px; box-shadow: 0 4px 6px rgba(0, 0, 0, 0.3);""><div style=""margin-top: 25px; display: flex; align-items: center; gap: 15px;""><label style=""font-size: 18px;"">Return value:</label><input type=""number"" id=""answer-input-0"" style=""font-size: 22px; padding: 12px 20px; width: 180px; text-align: center; border: 2px solid #4CAF50; border-radius: 8px;"" placeholder=""Enter number""></div></div>",0,,problem,GreenHouse,1,Low,7651,7651,true
,,,,,html-button-response,6,273119,0.0-6.0,23,1,2026-01-27 04:35:05,74232d8b0e4be341c6e5f2f2ebfe01be,124.122.124.111,"Mozilla/5.0 (Macintosh; Intel Mac OS X 10_15_7) AppleWebKit/537.36 (KHTML, like Gecko) Chrome/144.0.0.0 Safari/537.36",Macintosh,Chrome,144.0.0.0,OS X,10_15_7,null,"en-US,en;q=0.9,ko-KR;q=0.8,ko;q=0.7",6801,"<h3>Problem 1 Complete</h3><p>Take a short break if needed.</p><p>Click ""Next"" when you are ready for the next problem.</p>",0,,,,,,,,
,,,,,html-button-response,7,522813,0.0-7.0,23,1,2026-01-27 04:35:05,74232d8b0e4be341c6e5f2f2ebfe01be,124.122.124.111,"Mozilla/5.0 (Macintosh; Intel Mac OS X 10_15_7) AppleWebKit/537.36 (KHTML, like Gecko) Chrome/144.0.0.0 Safari/537.36",Macintosh,Chrome,144.0.0.0,OS X,10_15_7,null,"en-US,en;q=0.9,ko-KR;q=0.8,ko;q=0.7",249694,"<div style=""display: flex; flex-direction: column; align-items: center;""><div style=""font-size: 18px; color: #666; margin-bottom: 15px;"">Problem 2 of 5</div><img src=""problem_2.png"" style=""max-width: 900px; border-radius: 10px; box-shadow: 0 4px 6px rgba(0, 0, 0, 0.3);""><div style=""margin-top: 25px; display: flex; align-items: center; gap: 15px;""><label style=""font-size: 18px;"">Return value:</label><input type=""number"" id=""answer-input-1"" style=""font-size: 22px; padding: 12px 20px; width: 180px; text-align: center; border: 2px solid #4CAF50; border-radius: 8px;"" placeholder=""Enter number""></div></div>",0,,problem,HubPool,2,Medium,954,954,true
,,,,,html-button-response,8,525938,0.0-8.0,23,1,2026-01-27 04:35:05,74232d8b0e4be341c6e5f2f2ebfe01be,124.122.124.111,"Mozilla/5.0 (Macintosh; Intel Mac OS X 10_15_7) AppleWebKit/537.36 (KHTML, like Gecko) Chrome/144.0.0.0 Safari/537.36",Macintosh,Chrome,144.0.0.0,OS X,10_15_7,null,"en-US,en;q=0.9,ko-KR;q=0.8,ko;q=0.7",3124,"<h3>Problem 2 Complete</h3><p>Take a short break if needed.</p><p>Click ""Next"" when you are ready for the next problem.</p>",0,,,,,,,,
,,,,,html-button-response,9,604545,0.0-9.0,23,1,2026-01-27 04:35:05,74232d8b0e4be341c6e5f2f2ebfe01be,124.122.124.111,"Mozilla/5.0 (Macintosh; Intel Mac OS X 10_15_7) AppleWebKit/537.36 (KHTML, like Gecko) Chrome/144.0.0.0 Safari/537.36",Macintosh,Chrome,144.0.0.0,OS X,10_15_7,null,"en-US,en;q=0.9,ko-KR;q=0.8,ko;q=0.7",78536,"<div style=""display: flex; flex-direction: column; align-items: center;""><div style=""font-size: 18px; color: #666; margin-bottom: 15px;"">Problem 3 of 5</div><img src=""problem_3.png"" style=""max-width: 900px; border-radius: 10px; box-shadow: 0 4px 6px rgba(0, 0, 0, 0.3);""><div style=""margin-top: 25px; display: flex; align-items: center; gap: 15px;""><label style=""font-size: 18px;"">Return value:</label><input type=""number"" id=""answer-input-2"" style=""font-size: 22px; padding: 12px 20px; width: 180px; text-align: center; border: 2px solid #4CAF50; border-radius: 8px;"" placeholder=""Enter number""></div></div>",0,,problem,PercentageFeeModel,3,Medium-High,85,85,true
,,,,,html-button-response,10,606520,0.0-10.0,23,1,2026-01-27 04:35:05,74232d8b0e4be341c6e5f2f2ebfe01be,124.122.124.111,"Mozilla/5.0 (Macintosh; Intel Mac OS X 10_15_7) AppleWebKit/537.36 (KHTML, like Gecko) Chrome/144.0.0.0 Safari/537.36",Macintosh,Chrome,144.0.0.0,OS X,10_15_7,null,"en-US,en;q=0.9,ko-KR;q=0.8,ko;q=0.7",1974,"<h3>Problem 3 Complete</h3><p>Take a short break if needed.</p><p>Click ""Next"" when you are ready for the next problem.</p>",0,,,,,,,,
,,,,,html-button-response,11,847973,0.0-11.0,23,1,2026-01-27 04:35:05,74232d8b0e4be341c6e5f2f2ebfe01be,124.122.124.111,"Mozilla/5.0 (Macintosh; Intel Mac OS X 10_15_7) AppleWebKit/537.36 (KHTML, like Gecko) Chrome/144.0.0.0 Safari/537.36",Macintosh,Chrome,144.0.0.0,OS X,10_15_7,null,"en-US,en;q=0.9,ko-KR;q=0.8,ko;q=0.7",241452,"<div style=""display: flex; flex-direction: column; align-items: center;""><div style=""font-size: 18px; color: #666; margin-bottom: 15px;"">Problem 4 of 5</div><img src=""problem_4.png"" style=""max-width: 900px; border-radius: 10px; box-shadow: 0 4px 6px rgba(0, 0, 0, 0.3);""><div style=""margin-top: 25px; display: flex; align-items: center; gap: 15px;""><label style=""font-size: 18px;"">Return value:</label><input type=""number"" id=""answer-input-3"" style=""font-size: 22px; padding: 12px 20px; width: 180px; text-align: center; border: 2px solid #4CAF50; border-radius: 8px;"" placeholder=""Enter number""></div></div>",0,,problem,LockupContract,4,High,6000,24000,false
,,,,,html-button-response,12,851672,0.0-12.0,23,1,2026-01-27 04:35:05,74232d8b0e4be341c6e5f2f2ebfe01be,124.122.124.111,"Mozilla/5.0 (Macintosh; Intel Mac OS X 10_15_7) AppleWebKit/537.36 (KHTML, like Gecko) Chrome/144.0.0.0 Safari/537.36",Macintosh,Chrome,144.0.0.0,OS X,10_15_7,null,"en-US,en;q=0.9,ko-KR;q=0.8,ko;q=0.7",3698,"<h3>Problem 4 Complete</h3><p>Take a short break if needed.</p><p>Click ""Next"" when you are ready for the next problem.</p>",0,,,,,,,,
,,,,,html-button-response,13,1060919,0.0-13.0,23,1,2026-01-27 04:35:05,74232d8b0e4be341c6e5f2f2ebfe01be,124.122.124.111,"Mozilla/5.0 (Macintosh; Intel Mac OS X 10_15_7) AppleWebKit/537.36 (KHTML, like Gecko) Chrome/144.0.0.0 Safari/537.36",Macintosh,Chrome,144.0.0.0,OS X,10_15_7,null,"en-US,en;q=0.9,ko-KR;q=0.8,ko;q=0.7",209246,"<div style=""display: flex; flex-direction: column; align-items: center;""><div style=""font-size: 18px; color: #666; margin-bottom: 15px;"">Problem 5 of 5</div><img src=""problem_5.png"" style=""max-width: 900px; border-radius: 10px; box-shadow: 0 4px 6px rgba(0, 0, 0, 0.3);""><div style=""margin-top: 25px; display: flex; align-items: center; gap: 15px;""><label style=""font-size: 18px;"">Return value:</label><input type=""number"" id=""answer-input-4"" style=""font-size: 22px; padding: 12px 20px; width: 180px; text-align: center; border: 2px solid #4CAF50; border-radius: 8px;"" placeholder=""Enter number""></div></div>",0,,problem,Lock,5,High,6800,7200,false
,,,,,survey-multi-choice,14,1079623,0.0-14.0,23,1,2026-01-27 04:35:05,74232d8b0e4be341c6e5f2f2ebfe01be,124.122.124.111,"Mozilla/5.0 (Macintosh; Intel Mac OS X 10_15_7) AppleWebKit/537.36 (KHTML, like Gecko) Chrome/144.0.0.0 Safari/537.36",Macintosh,Chrome,144.0.0.0,OS X,10_15_7,null,"en-US,en;q=0.9,ko-KR;q=0.8,ko;q=0.7",18704,,"{""tools_used"":""Pen and paper""}",[0],,,,,,,
,,,,,html-button-response,15,1081813,0.0-15.0,23,1,2026-01-27 04:35:05,74232d8b0e4be341c6e5f2f2ebfe01be,124.122.124.111,"Mozilla/5.0 (Macintosh; Intel Mac OS X 10_15_7) AppleWebKit/537.36 (KHTML, like Gecko) Chrome/144.0.0.0 Safari/537.36",Macintosh,Chrome,144.0.0.0,OS X,10_15_7,null,"en-US,en;q=0.9,ko-KR;q=0.8,ko;q=0.7",2188,<h1>Thank You!</h1><p>Your responses have been recorded.</p><p>Thank you for participating in this study.</p>,0,,,,,,,,
true,false,[],[],[],preload,0,234,0.0-0.0,20,1,2026-01-27 03:23:57,74232d8b0e4be341c6e5f2f2ebfe01be,116.46.68.199,"Mozilla/5.0 (Macintosh; Intel Mac OS X 10_15_7) AppleWebKit/537.36 (KHTML, like Gecko) Chrome/143.0.0.0 Safari/537.36",Macintosh,Chrome,143.0.0.0,OS X,10_15_7,null,"en-US,en;q=0.9,ko;q=0.8,zh-CN;q=0.7,zh;q=0.6,ja;q=0.5",,,,,,,,,,,
,,,,,html-button-response,1,5979,0.0-1.0,20,1,2026-01-27 03:23:57,74232d8b0e4be341c6e5f2f2ebfe01be,116.46.68.199,"Mozilla/5.0 (Macintosh; Intel Mac OS X 10_15_7) AppleWebKit/537.36 (KHTML, like Gecko) Chrome/143.0.0.0 Safari/537.36",Macintosh,Chrome,143.0.0.0,OS X,10_15_7,null,"en-US,en;q=0.9,ko;q=0.8,zh-CN;q=0.7,zh;q=0.6,ja;q=0.5",5743,"<h1>Program Comprehension Study</h1><div style=""text-align: left; max-width: 800px; margin: 0 auto; line-height: 1.8;""><p>Thank you for participating in this study.</p><p>In this experiment, you will be shown <strong>5 code snippets</strong> with input values. Your task is to <strong>calculate the return value</strong> of each function.</p><p><strong>Important:</strong></p><ul><li>You may use a calculator for arithmetic operations.</li><li>Take your time to understand the code before answering.</li><li>Your response time will be recorded.</li></ul><p>The study takes approximately <strong>15-20 minutes</strong>.</p><p>By clicking ""I Agree"", you consent to participate in this study.</p></div>",0,,,,,,,,
,,,,,survey-text,2,22949,0.0-2.0,20,1,2026-01-27 03:23:57,74232d8b0e4be341c6e5f2f2ebfe01be,116.46.68.199,"Mozilla/5.0 (Macintosh; Intel Mac OS X 10_15_7) AppleWebKit/537.36 (KHTML, like Gecko) Chrome/143.0.0.0 Safari/537.36",Macintosh,Chrome,143.0.0.0,OS X,10_15_7,null,"en-US,en;q=0.9,ko;q=0.8,zh-CN;q=0.7,zh;q=0.6,ja;q=0.5",16966,,"{""name"":""홍진화"",""email"":""ev0lution@naver.com""}",,,,,,,,
,,,,,survey-multi-choice,3,46694,0.0-3.0,20,1,2026-01-27 03:23:57,74232d8b0e4be341c6e5f2f2ebfe01be,116.46.68.199,"Mozilla/5.0 (Macintosh; Intel Mac OS X 10_15_7) AppleWebKit/537.36 (KHTML, like Gecko) Chrome/143.0.0.0 Safari/537.36",Macintosh,Chrome,143.0.0.0,OS X,10_15_7,null,"en-US,en;q=0.9,ko;q=0.8,zh-CN;q=0.7,zh;q=0.6,ja;q=0.5",23743,,"{""programming_exp"":""3-5 years"",""solidity_exp"":""Beginner (read some code)"",""role"":""Graduate Student""}","[0,1,2]",,,,,,,
,,,,,html-button-response,4,71514,0.0-4.0,20,1,2026-01-27 03:23:57,74232d8b0e4be341c6e5f2f2ebfe01be,116.46.68.199,"Mozilla/5.0 (Macintosh; Intel Mac OS X 10_15_7) AppleWebKit/537.36 (KHTML, like Gecko) Chrome/143.0.0.0 Safari/537.36",Macintosh,Chrome,143.0.0.0,OS X,10_15_7,null,"en-US,en;q=0.9,ko;q=0.8,zh-CN;q=0.7,zh;q=0.6,ja;q=0.5",24817,"<h2>Instructions</h2><div style=""text-align: left; max-width: 800px; margin: 0 auto; line-height: 1.8;""><p>You will now see 5 problems. For each problem:</p><ol><li>Read the code carefully</li><li>Note the input values provided</li><li>Calculate the return value of the function</li><li>Enter your answer in the text box below the code</li><li>Click ""Submit"" when ready</li></ol><p><strong>Note:</strong> Enter only the numeric value (e.g., 1234), not variable names or expressions.</p><p>Click ""Start"" when you are ready.</p></div>",0,,,,,,,,
,,,,,html-button-response,5,390622,0.0-5.0,20,1,2026-01-27 03:23:57,74232d8b0e4be341c6e5f2f2ebfe01be,116.46.68.199,"Mozilla/5.0 (Macintosh; Intel Mac OS X 10_15_7) AppleWebKit/537.36 (KHTML, like Gecko) Chrome/143.0.0.0 Safari/537.36",Macintosh,Chrome,143.0.0.0,OS X,10_15_7,null,"en-US,en;q=0.9,ko;q=0.8,zh-CN;q=0.7,zh;q=0.6,ja;q=0.5",319106,"<div style=""display: flex; flex-direction: column; align-items: center;""><div style=""font-size: 18px; color: #666; margin-bottom: 15px;"">Problem 1 of 5</div><img src=""problem_1.png"" style=""max-width: 900px; border-radius: 10px; box-shadow: 0 4px 6px rgba(0, 0, 0, 0.3);""><div style=""margin-top: 25px; display: flex; align-items: center; gap: 15px;""><label style=""font-size: 18px;"">Return value:</label><input type=""number"" id=""answer-input-0"" style=""font-size: 22px; padding: 12px 20px; width: 180px; text-align: center; border: 2px solid #4CAF50; border-radius: 8px;"" placeholder=""Enter number""></div></div>",0,,problem,GreenHouse,1,Low,7651,7650,false
